imagefile	stimfile	corrAns	MRdir	angle	training.thisRepN	training.thisTrialN	training.thisN	training.thisIndex	mentalrot_trials.thisRepN	mentalrot_trials.thisTrialN	mentalrot_trials.thisN	mentalrot_trials.thisIndex	blank.started	mr_answ_2.started	mr_answ_2.keys	mr_answ_2.corr	mr_answ_2.rt	blank.stopped	mr_answ.started	mr_answ.keys	mr_answ.corr	mr_answ.rt	byebye_text.started	byebye_text.stopped	participant	session	date	expName	psychopyVersion	frameRate	...32
mr_images/1_a.png	mr_images/1_a_z_270.png	left	ccw	90	0	0	0	7	NA	NA	NA	NA	82.05425120005384	82.60371970012784	None	0	NA	NA	NA	NA	NA	NA	NA	NA	sev	001	2026-03-06_11h41.30.613	MR	2023.1.0	59.99876408589627	NA
mr_images/3_b.png	mr_images/3_a_z_135.png	right	cw	135	0	1	1	92	NA	NA	NA	NA	87.50533290021122	88.06965450011194	right	1	2.0945387999527156	NA	NA	NA	NA	NA	NA	NA	sev	001	2026-03-06_11h41.30.613	MR	2023.1.0	59.99876408589627	NA
mr_images/6_b.png	mr_images/6_a_z_90.png	right	cw	90	0	2	2	160	NA	NA	NA	NA	90.1859897999093	90.76928569981828	right	1	2.8107845997437835	90.76928569981828	NA	NA	NA	NA	NA	NA	sev	001	2026-03-06_11h41.30.613	MR	2023.1.0	59.99876408589627	NA
mr_images/3_a.png	mr_images/3_b_z_225.png	right	ccw	135	0	3	3	82	NA	NA	NA	NA	93.60229460010304	94.18600470013916	left	0	2.3167232000268996	94.18600470013916	NA	NA	NA	NA	NA	NA	sev	001	2026-03-06_11h41.30.613	MR	2023.1.0	59.99876408589627	NA
mr_images/7_b.png	mr_images/7_b_z_225.png	left	ccw	135	0	4	4	191	NA	NA	NA	NA	96.53519249986856	97.11849260004236	left	1	2.071525199804455	97.11849260004236	NA	NA	NA	NA	NA	NA	sev	001	2026-03-06_11h41.30.613	MR	2023.1.0	59.99876408589627	NA
mr_images/4_a.png	mr_images/4_a_z_225.png	left	ccw	135	NA	NA	NA	NA	0	0	0	107	101.70101319998504	NA	NA	NA	NA	NA	102.21776100015268	left	1	1.7194102997891605	NA	NA	sev	001	2026-03-06_11h41.30.613	MR	2023.1.0	59.99876408589627	NA
mr_images/12_a.png	mr_images/12_b_z_225.png	right	ccw	135	NA	NA	NA	NA	0	1	1	58	103.9676378997974	NA	NA	NA	NA	104.55077880015595	104.55077880015595	left	0	2.6912887999787927	NA	NA	sev	001	2026-03-06_11h41.30.613	MR	2023.1.0	59.99876408589627	NA
mr_images/11_a.png	mr_images/11_a_z_225.png	left	ccw	135	NA	NA	NA	NA	0	2	2	35	107.26704820012674	NA	NA	NA	NA	107.85026009986176	107.85026009986176	left	1	2.673492199741304	NA	NA	sev	001	2026-03-06_11h41.30.613	MR	2023.1.0	59.99876408589627	NA
mr_images/5_b.png	mr_images/5_a_z_270.png	right	ccw	90	NA	NA	NA	NA	0	3	3	138	110.54981279978529	NA	NA	NA	NA	111.13314539985733	111.13314539985733	left	0	1.7679733000695703	NA	NA	sev	001	2026-03-06_11h41.30.613	MR	2023.1.0	59.99876408589627	NA
mr_images/11_a.png	mr_images/11_a_z_315.png	left	ccw	45	NA	NA	NA	NA	0	4	4	27	112.93299470003694	NA	NA	NA	NA	113.49969229986893	113.49969229986893	left	1	2.6322875996120274	NA	NA	sev	001	2026-03-06_11h41.30.613	MR	2023.1.0	59.99876408589627	NA
mr_images/12_a.png	mr_images/12_b_z_45.png	right	cw	45	NA	NA	NA	NA	0	5	5	48	116.1490943999961	NA	NA	NA	NA	116.6990514001809	116.6990514001809	right	1	3.2395755001343787	NA	NA	sev	001	2026-03-06_11h41.30.613	MR	2023.1.0	59.99876408589627	NA
mr_images/12_b.png	mr_images/12_a_z_135.png	right	cw	135	NA	NA	NA	NA	0	6	6	68	119.96516899997368	NA	NA	NA	NA	120.548446000088	120.548446000088	left	0	2.404502000194043	NA	NA	sev	001	2026-03-06_11h41.30.613	MR	2023.1.0	59.99876408589627	NA
mr_images/1_b.png	mr_images/1_b_z_270.png	left	ccw	90	NA	NA	NA	NA	0	7	7	19	122.9814515998587	NA	NA	NA	NA	123.56492230016738	123.56492230016738	left	1	2.6571924001909792	NA	NA	sev	001	2026-03-06_11h41.30.613	MR	2023.1.0	59.99876408589627	NA
mr_images/7_a.png	mr_images/7_b_z_45.png	right	cw	45	NA	NA	NA	NA	0	8	8	168	126.2477429001592	NA	NA	NA	NA	126.81698289979248	126.81698289979248	left	0	2.0254770000465214	NA	NA	sev	001	2026-03-06_11h41.30.613	MR	2023.1.0	59.99876408589627	NA
mr_images/9_b.png	mr_images/9_a_z_315.png	right	ccw	45	NA	NA	NA	NA	0	9	9	206	128.8683011997491	NA	NA	NA	NA	129.4472491000779	129.4472491000779	left	0	2.5663795000873506	NA	NA	sev	001	2026-03-06_11h41.30.613	MR	2023.1.0	59.99876408589627	NA
mr_images/12_a.png	mr_images/12_a_z_90.png	left	cw	90	NA	NA	NA	NA	0	10	10	53	132.0301919998601	NA	NA	NA	NA	132.59685389976948	132.59685389976948	right	0	3.2793116997927427	NA	NA	sev	001	2026-03-06_11h41.30.613	MR	2023.1.0	59.99876408589627	NA
mr_images/6_a.png	mr_images/6_b_z_270.png	right	ccw	90	NA	NA	NA	NA	0	11	11	150	135.89648489980027	NA	NA	NA	NA	136.47963789990172	136.47963789990172	left	0	2.2119788001291454	NA	NA	sev	001	2026-03-06_11h41.30.613	MR	2023.1.0	59.99876408589627	NA
mr_images/1_b.png	mr_images/1_b_z_315.png	left	ccw	45	NA	NA	NA	NA	0	12	12	15	138.7125731999986	NA	NA	NA	NA	139.27926099998876	139.27926099998876	right	0	2.8217477998696268	NA	NA	sev	001	2026-03-06_11h41.30.613	MR	2023.1.0	59.99876408589627	NA
mr_images/6_a.png	mr_images/6_a_z_225.png	left	ccw	135	NA	NA	NA	NA	0	13	13	155	142.12879210012034	NA	NA	NA	NA	142.69549289997667	142.69549289997667	right	0	4.461216399911791	NA	NA	sev	001	2026-03-06_11h41.30.613	MR	2023.1.0	59.99876408589627	NA
mr_images/9_b.png	mr_images/9_a_z_135.png	right	cw	135	NA	NA	NA	NA	0	14	14	212	147.17818599985912	NA	NA	NA	NA	147.72803380014375	147.72803380014375	left	0	2.707913599908352	NA	NA	sev	001	2026-03-06_11h41.30.613	MR	2023.1.0	59.99876408589627	NA
mr_images/5_b.png	mr_images/5_a_z_315.png	right	ccw	45	NA	NA	NA	NA	0	15	15	134	150.4609790001996	NA	NA	NA	NA	151.02754819998518	151.02754819998518	left	0	2.463966699782759	NA	NA	sev	001	2026-03-06_11h41.30.613	MR	2023.1.0	59.99876408589627	NA
mr_images/6_a.png	mr_images/6_b_z_90.png	right	cw	90	NA	NA	NA	NA	0	16	16	148	153.51061470014974	NA	NA	NA	NA	154.0619454998523	154.0619454998523	left	0	3.857213099952787	NA	NA	sev	001	2026-03-06_11h41.30.613	MR	2023.1.0	59.99876408589627	NA
mr_images/1_a.png	mr_images/1_b_z_225.png	right	ccw	135	NA	NA	NA	NA	0	17	17	10	157.94329189974815	NA	NA	NA	NA	158.50990599999204	158.50990599999204	left	0	2.9775039996020496	NA	NA	sev	001	2026-03-06_11h41.30.613	MR	2023.1.0	59.99876408589627	NA
mr_images/6_b.png	mr_images/6_b_z_45.png	left	cw	45	NA	NA	NA	NA	0	18	18	157	161.50947829987854	NA	NA	NA	NA	162.05937109980732	162.05937109980732	None	0	NA	NA	NA	sev	001	2026-03-06_11h41.30.613	MR	2023.1.0	59.99876408589627	NA
mr_images/11_b.png	mr_images/11_b_z_225.png	left	ccw	135	NA	NA	NA	NA	0	19	19	47	167.02531719999388	NA	NA	NA	NA	NA	167.59187150001526	right	0	3.641116600017994	NA	NA	sev	001	2026-03-06_11h41.30.613	MR	2023.1.0	59.99876408589627	NA
mr_images/3_b.png	mr_images/3_a_z_90.png	right	cw	90	NA	NA	NA	NA	0	20	20	88	171.25807400001213	NA	NA	NA	NA	171.8249137001112	171.8249137001112	left	0	4.219192400109023	NA	NA	sev	001	2026-03-06_11h41.30.613	MR	2023.1.0	59.99876408589627	NA
mr_images/1_b.png	mr_images/1_b_z_135.png	left	cw	135	NA	NA	NA	NA	0	21	21	21	176.074130800087	NA	NA	NA	NA	176.64077679999173	176.64077679999173	None	0	NA	NA	NA	sev	001	2026-03-06_11h41.30.613	MR	2023.1.0	59.99876408589627	NA
mr_images/1_b.png	mr_images/1_a_z_225.png	right	ccw	135	NA	NA	NA	NA	0	22	22	22	181.59005129989237	NA	NA	NA	NA	NA	182.15669470001012	left	0	3.11348249996081	NA	NA	sev	001	2026-03-06_11h41.30.613	MR	2023.1.0	59.99876408589627	NA
mr_images/12_a.png	mr_images/12_b_z_90.png	right	cw	90	NA	NA	NA	NA	0	23	23	52	185.28954839985815	NA	NA	NA	NA	185.8418422001414	185.8418422001414	right	1	3.208368099760264	NA	NA	sev	001	2026-03-06_11h41.30.613	MR	2023.1.0	59.99876408589627	NA
mr_images/5_a.png	mr_images/5_b_z_90.png	right	cw	90	NA	NA	NA	NA	0	24	24	124	189.0766555997543	NA	NA	NA	NA	189.65738639980555	189.65738639980555	left	0	3.0335586997680366	NA	NA	sev	001	2026-03-06_11h41.30.613	MR	2023.1.0	59.99876408589627	NA
mr_images/9_b.png	mr_images/9_b_z_270.png	left	ccw	90	NA	NA	NA	NA	0	25	25	211	192.7094168998301	NA	NA	NA	NA	193.260987599846	193.260987599846	right	0	3.0796996001154184	NA	NA	sev	001	2026-03-06_11h41.30.613	MR	2023.1.0	59.99876408589627	NA
mr_images/4_a.png	mr_images/4_a_z_270.png	left	ccw	90	NA	NA	NA	NA	0	26	26	103	196.35889799986035	NA	NA	NA	NA	196.93788880016655	196.93788880016655	right	0	2.911185699980706	NA	NA	sev	001	2026-03-06_11h41.30.613	MR	2023.1.0	59.99876408589627	NA
mr_images/6_a.png	mr_images/6_a_z_315.png	left	ccw	45	NA	NA	NA	NA	0	27	27	147	199.870756899938	NA	NA	NA	NA	200.4374867998995	200.4374867998995	right	0	3.272700199857354	NA	NA	sev	001	2026-03-06_11h41.30.613	MR	2023.1.0	59.99876408589627	NA
mr_images/9_b.png	mr_images/9_b_z_45.png	left	cw	45	NA	NA	NA	NA	0	28	28	205	203.7369539001957	NA	NA	NA	NA	204.3035865998827	204.3035865998827	right	0	3.2031762995757163	NA	NA	sev	001	2026-03-06_11h41.30.613	MR	2023.1.0	59.99876408589627	NA
mr_images/9_a.png	mr_images/9_b_z_315.png	right	ccw	45	NA	NA	NA	NA	0	29	29	194	207.536583899986	NA	NA	NA	NA	208.11969339987263	208.11969339987263	left	0	1.3251148001290858	NA	NA	sev	001	2026-03-06_11h41.30.613	MR	2023.1.0	59.99876408589627	NA
mr_images/4_b.png	mr_images/4_b_z_315.png	left	ccw	45	NA	NA	NA	NA	0	30	30	111	209.4695581998676	NA	NA	NA	NA	210.0528167001903	210.0528167001903	right	0	2.349404400214553	NA	NA	sev	001	2026-03-06_11h41.30.613	MR	2023.1.0	59.99876408589627	NA
mr_images/7_b.png	mr_images/7_b_z_315.png	left	ccw	45	NA	NA	NA	NA	0	31	31	183	212.41904739988968	NA	NA	NA	NA	212.98574719997123	212.98574719997123	right	0	4.512251799926162	NA	NA	sev	001	2026-03-06_11h41.30.613	MR	2023.1.0	59.99876408589627	NA
mr_images/5_b.png	mr_images/5_b_z_315.png	left	ccw	45	NA	NA	NA	NA	0	32	32	135	217.5184758999385	NA	NA	NA	NA	218.0849760998972	218.0849760998972	right	0	4.295031999703497	NA	NA	sev	001	2026-03-06_11h41.30.613	MR	2023.1.0	59.99876408589627	NA
mr_images/1_a.png	mr_images/1_b_z_315.png	right	ccw	45	NA	NA	NA	NA	0	33	33	2	222.4009667001665	NA	NA	NA	NA	222.93433739989996	222.93433739989996	left	0	3.0919932001270354	NA	NA	sev	001	2026-03-06_11h41.30.613	MR	2023.1.0	59.99876408589627	NA
mr_images/1_a.png	mr_images/1_a_z_90.png	left	cw	90	NA	NA	NA	NA	0	34	34	5	226.05045079998672	NA	NA	NA	NA	226.61715940013528	226.61715940013528	None	0	NA	NA	NA	sev	001	2026-03-06_11h41.30.613	MR	2023.1.0	59.99876408589627	NA
mr_images/5_b.png	mr_images/5_b_z_225.png	left	ccw	135	NA	NA	NA	NA	0	35	35	143	231.5664264997467	NA	NA	NA	NA	NA	232.11632989998907	left	1	2.474161499645561	NA	NA	sev	001	2026-03-06_11h41.30.613	MR	2023.1.0	59.99876408589627	NA
mr_images/3_a.png	mr_images/3_a_z_270.png	left	ccw	90	NA	NA	NA	NA	0	36	36	79	234.61595739983025	NA	NA	NA	NA	235.18254599999636	235.18254599999636	right	0	3.020293700043112	NA	NA	sev	001	2026-03-06_11h41.30.613	MR	2023.1.0	59.99876408589627	NA
mr_images/7_b.png	mr_images/7_b_z_225.png	left	ccw	135	NA	NA	NA	NA	0	37	37	191	238.23218380007893	NA	NA	NA	NA	NA	238.76541939983144	right	0	3.750903199892491	NA	NA	sev	001	2026-03-06_11h41.30.613	MR	2023.1.0	59.99876408589627	NA
mr_images/5_a.png	mr_images/5_a_z_270.png	left	ccw	90	NA	NA	NA	NA	0	38	38	127	242.548402399756	NA	NA	NA	NA	243.08151810010895	243.08151810010895	left	1	3.091105400118977	NA	NA	sev	001	2026-03-06_11h41.30.613	MR	2023.1.0	59.99876408589627	NA
mr_images/1_b.png	mr_images/1_a_z_90.png	right	cw	90	NA	NA	NA	NA	0	39	39	16	246.19765290012583	NA	NA	NA	NA	246.73094560019672	246.73094560019672	left	0	2.945027799811214	NA	NA	sev	001	2026-03-06_11h41.30.613	MR	2023.1.0	59.99876408589627	NA
mr_images/3_b.png	mr_images/3_b_z_270.png	left	ccw	90	NA	NA	NA	NA	0	40	40	91	249.69719070009887	NA	NA	NA	NA	250.26390059990808	250.26390059990808	right	0	3.340775199700147	NA	NA	sev	001	2026-03-06_11h41.30.613	MR	2023.1.0	59.99876408589627	NA
mr_images/12_a.png	mr_images/12_a_z_270.png	left	ccw	90	NA	NA	NA	NA	0	41	41	55	253.6300400001928	NA	NA	NA	NA	254.18585429992527	254.18585429992527	right	0	3.956371999811381	NA	NA	sev	001	2026-03-06_11h41.30.613	MR	2023.1.0	59.99876408589627	NA
mr_images/7_b.png	mr_images/7_b_z_270.png	left	ccw	90	NA	NA	NA	NA	0	42	42	187	258.1669525001198	NA	NA	NA	NA	258.7294327998534	258.7294327998534	right	0	2.629896300379187	NA	NA	sev	001	2026-03-06_11h41.30.613	MR	2023.1.0	59.99876408589627	NA
mr_images/12_a.png	mr_images/12_b_z_135.png	right	cw	135	NA	NA	NA	NA	0	43	43	56	261.37891520000994	NA	NA	NA	NA	261.92996060010046	261.92996060010046	left	0	2.222634600009769	NA	NA	sev	001	2026-03-06_11h41.30.613	MR	2023.1.0	59.99876408589627	NA
mr_images/6_a.png	mr_images/6_a_z_45.png	left	cw	45	NA	NA	NA	NA	0	44	44	145	264.17860150011256	NA	NA	NA	NA	264.73279750021175	264.73279750021175	left	1	2.024305000435561	NA	NA	sev	001	2026-03-06_11h41.30.613	MR	2023.1.0	59.99876408589627	NA
mr_images/11_a.png	mr_images/11_a_z_270.png	left	ccw	90	NA	NA	NA	NA	0	45	45	31	266.78245159983635	NA	NA	NA	NA	267.34477749979123	267.34477749979123	right	0	2.6588409999385476	NA	NA	sev	001	2026-03-06_11h41.30.613	MR	2023.1.0	59.99876408589627	NA
mr_images/11_b.png	mr_images/11_a_z_135.png	right	cw	135	NA	NA	NA	NA	0	46	46	44	270.0279141999781	NA	NA	NA	NA	270.59431090019643	270.59431090019643	left	0	2.596774599980563	NA	NA	sev	001	2026-03-06_11h41.30.613	MR	2023.1.0	59.99876408589627	NA
mr_images/11_a.png	mr_images/11_b_z_225.png	right	ccw	135	NA	NA	NA	NA	0	47	47	34	273.210648200009	NA	NA	NA	NA	273.7438647998497	273.7438647998497	left	0	2.8962003998458385	NA	NA	sev	001	2026-03-06_11h41.30.613	MR	2023.1.0	59.99876408589627	NA
mr_images/9_a.png	mr_images/9_b_z_135.png	right	cw	135	NA	NA	NA	NA	0	48	48	200	276.66011400008574	NA	NA	NA	NA	277.2127896999009	277.2127896999009	left	0	2.702772599644959	NA	NA	sev	001	2026-03-06_11h41.30.613	MR	2023.1.0	59.99876408589627	NA
mr_images/5_b.png	mr_images/5_a_z_225.png	right	ccw	135	NA	NA	NA	NA	0	49	49	142	279.9472254998982	NA	NA	NA	NA	280.4986159000546	280.4986159000546	left	0	2.441549599636346	NA	NA	sev	001	2026-03-06_11h41.30.613	MR	2023.1.0	59.99876408589627	NA
mr_images/3_a.png	mr_images/3_b_z_225.png	right	ccw	135	NA	NA	NA	NA	0	50	50	82	282.9635497997515	NA	NA	NA	NA	283.49244089983404	283.49244089983404	left	0	3.27685989998281	NA	NA	sev	001	2026-03-06_11h41.30.613	MR	2023.1.0	59.99876408589627	NA
mr_images/9_b.png	mr_images/9_a_z_90.png	right	cw	90	NA	NA	NA	NA	0	51	51	208	286.79208269994706	NA	NA	NA	NA	287.35864710016176	287.35864710016176	left	0	3.3032176000997424	NA	NA	sev	001	2026-03-06_11h41.30.613	MR	2023.1.0	59.99876408589627	NA
mr_images/3_b.png	mr_images/3_b_z_225.png	left	ccw	135	NA	NA	NA	NA	0	52	52	95	290.69150849990547	NA	NA	NA	NA	291.2247831998393	291.2247831998393	right	0	3.397573499940336	NA	NA	sev	001	2026-03-06_11h41.30.613	MR	2023.1.0	59.99876408589627	NA
mr_images/5_a.png	mr_images/5_b_z_225.png	right	ccw	135	NA	NA	NA	NA	0	53	53	130	294.64104419993237	NA	NA	NA	NA	295.174302500207	295.174302500207	left	0	2.3504824000410736	NA	NA	sev	001	2026-03-06_11h41.30.613	MR	2023.1.0	59.99876408589627	NA
mr_images/6_b.png	mr_images/6_a_z_135.png	right	cw	135	NA	NA	NA	NA	0	54	54	164	297.55754159996286	NA	NA	NA	NA	298.1238685999997	298.1238685999997	left	0	2.624497799668461	NA	NA	sev	001	2026-03-06_11h41.30.613	MR	2023.1.0	59.99876408589627	NA
mr_images/12_b.png	mr_images/12_b_z_225.png	left	ccw	135	NA	NA	NA	NA	0	55	55	71	300.773475300055	NA	NA	NA	NA	301.3112924997695	301.3112924997695	right	0	3.6316855000332	NA	NA	sev	001	2026-03-06_11h41.30.613	MR	2023.1.0	59.99876408589627	NA
mr_images/4_b.png	mr_images/4_a_z_135.png	right	cw	135	NA	NA	NA	NA	0	56	56	116	304.9605958000757	NA	NA	NA	NA	305.5227760998532	305.5227760998532	left	0	2.270782900042832	NA	NA	sev	001	2026-03-06_11h41.30.613	MR	2023.1.0	59.99876408589627	NA
mr_images/4_b.png	mr_images/4_a_z_315.png	right	ccw	45	NA	NA	NA	NA	0	57	57	110	307.8224508999847	NA	NA	NA	NA	308.389065799769	308.389065799769	left	0	1.9432129999622705	NA	NA	sev	001	2026-03-06_11h41.30.613	MR	2023.1.0	59.99876408589627	NA
mr_images/1_b.png	mr_images/1_a_z_270.png	right	ccw	90	NA	NA	NA	NA	0	58	58	18	310.3554698000662	NA	NA	NA	NA	310.89220630005	310.89220630005	left	0	1.997219500131905	NA	NA	sev	001	2026-03-06_11h41.30.613	MR	2023.1.0	59.99876408589627	NA
mr_images/6_b.png	mr_images/6_b_z_90.png	left	cw	90	NA	NA	NA	NA	0	59	59	161	312.90936829987913	NA	NA	NA	NA	313.43863019999117	313.43863019999117	right	0	2.846418700180948	NA	NA	sev	001	2026-03-06_11h41.30.613	MR	2023.1.0	59.99876408589627	NA
mr_images/4_a.png	mr_images/4_b_z_315.png	right	ccw	45	NA	NA	NA	NA	0	60	60	98	316.3047889000736	NA	NA	NA	NA	316.8379919999279	316.8379919999279	left	0	1.287495999597013	NA	NA	sev	001	2026-03-06_11h41.30.613	MR	2023.1.0	59.99876408589627	NA
mr_images/12_b.png	mr_images/12_b_z_45.png	left	cw	45	NA	NA	NA	NA	0	61	61	61	318.15439839987084	NA	NA	NA	NA	318.6708177998662	318.6708177998662	right	0	3.084795500151813	NA	NA	sev	001	2026-03-06_11h41.30.613	MR	2023.1.0	59.99876408589627	NA
mr_images/6_b.png	mr_images/6_b_z_270.png	left	ccw	90	NA	NA	NA	NA	0	62	62	163	321.78963880008087	NA	NA	NA	NA	NA	322.3372157998383	right	0	3.3816692996770144	NA	NA	sev	001	2026-03-06_11h41.30.613	MR	2023.1.0	59.99876408589627	NA
mr_images/4_a.png	mr_images/4_a_z_135.png	left	cw	135	NA	NA	NA	NA	0	63	63	105	325.7367556998506	NA	NA	NA	NA	326.2699616998434	326.2699616998434	left	1	2.8449846003204584	NA	NA	sev	001	2026-03-06_11h41.30.613	MR	2023.1.0	59.99876408589627	NA
mr_images/9_b.png	mr_images/9_a_z_45.png	right	cw	45	NA	NA	NA	NA	0	64	64	204	329.13625619979575	NA	NA	NA	NA	329.7056860998273	329.7056860998273	left	0	2.93967380002141	NA	NA	sev	001	2026-03-06_11h41.30.613	MR	2023.1.0	59.99876408589627	NA
mr_images/9_a.png	mr_images/9_a_z_90.png	left	cw	90	NA	NA	NA	NA	0	65	65	197	332.6733638001606	NA	NA	NA	NA	333.20588260004297	333.20588260004297	right	0	3.843219799920917	NA	NA	sev	001	2026-03-06_11h41.30.613	MR	2023.1.0	59.99876408589627	NA
mr_images/5_a.png	mr_images/5_a_z_225.png	left	ccw	135	NA	NA	NA	NA	0	66	66	131	337.07264170004055	NA	NA	NA	NA	337.6024758000858	337.6024758000858	left	1	2.900303500238806	NA	NA	sev	001	2026-03-06_11h41.30.613	MR	2023.1.0	59.99876408589627	NA
mr_images/12_b.png	mr_images/12_a_z_225.png	right	ccw	135	NA	NA	NA	NA	0	67	67	70	340.53462450020015	NA	NA	NA	NA	341.1012097001076	341.1012097001076	left	0	2.836346299853176	NA	NA	sev	001	2026-03-06_11h41.30.613	MR	2023.1.0	59.99876408589627	NA
mr_images/12_b.png	mr_images/12_b_z_90.png	left	cw	90	NA	NA	NA	NA	0	68	68	65	343.9674717998132	NA	NA	NA	NA	344.5006761001423	344.5006761001423	left	1	3.4867879999801517	NA	NA	sev	001	2026-03-06_11h41.30.613	MR	2023.1.0	59.99876408589627	NA
mr_images/4_b.png	mr_images/4_a_z_45.png	right	cw	45	NA	NA	NA	NA	0	69	69	108	348.01696000015363	NA	NA	NA	NA	348.5835961000994	348.5835961000994	left	0	2.8331845002248883	NA	NA	sev	001	2026-03-06_11h41.30.613	MR	2023.1.0	59.99876408589627	NA
mr_images/9_a.png	mr_images/9_a_z_270.png	left	ccw	90	NA	NA	NA	NA	0	70	70	199	351.4331817999482	NA	NA	NA	NA	351.98852750007063	351.98852750007063	left	1	3.2804107000119984	NA	NA	sev	001	2026-03-06_11h41.30.613	MR	2023.1.0	59.99876408589627	NA
mr_images/3_b.png	mr_images/3_a_z_45.png	right	cw	45	NA	NA	NA	NA	0	71	71	84	355.28683939995244	NA	NA	NA	NA	355.84914579987526	355.84914579987526	left	0	2.4070247998461127	NA	NA	sev	001	2026-03-06_11h41.30.613	MR	2023.1.0	59.99876408589627	NA
mr_images/12_a.png	mr_images/12_b_z_270.png	right	ccw	90	NA	NA	NA	NA	0	72	72	54	358.2821884001605	NA	NA	NA	NA	358.8335012998432	358.8335012998432	left	0	2.361883100122214	NA	NA	sev	001	2026-03-06_11h41.30.613	MR	2023.1.0	59.99876408589627	NA
mr_images/4_b.png	mr_images/4_b_z_225.png	left	ccw	135	NA	NA	NA	NA	0	73	73	119	361.2150697000325	NA	NA	NA	NA	361.7540628002025	361.7540628002025	left	1	1.7926998999901116	NA	NA	sev	001	2026-03-06_11h41.30.613	MR	2023.1.0	59.99876408589627	NA
mr_images/7_b.png	mr_images/7_b_z_45.png	left	cw	45	NA	NA	NA	NA	0	74	74	181	363.56900369981304	NA	NA	NA	NA	364.09795500012115	364.09795500012115	right	0	3.425196799915284	NA	NA	sev	001	2026-03-06_11h41.30.613	MR	2023.1.0	59.99876408589627	NA
mr_images/5_a.png	mr_images/5_a_z_45.png	left	cw	45	NA	NA	NA	NA	0	75	75	121	367.5476613999344	NA	NA	NA	NA	368.0991385998205	368.0991385998205	left	1	1.6144725000485778	NA	NA	sev	001	2026-03-06_11h41.30.613	MR	2023.1.0	59.99876408589627	NA
mr_images/4_b.png	mr_images/4_a_z_270.png	right	ccw	90	NA	NA	NA	NA	0	76	76	114	369.73484240006655	NA	NA	NA	NA	370.2638082001358	370.2638082001358	left	0	1.7616198998875916	NA	NA	sev	001	2026-03-06_11h41.30.613	MR	2023.1.0	59.99876408589627	NA
mr_images/12_b.png	mr_images/12_a_z_45.png	right	cw	45	NA	NA	NA	NA	0	77	77	60	372.0470559997484	NA	NA	NA	NA	372.61346009979025	372.61346009979025	left	0	4.059100300073624	NA	NA	sev	001	2026-03-06_11h41.30.613	MR	2023.1.0	59.99876408589627	NA
mr_images/12_a.png	mr_images/12_a_z_135.png	left	cw	135	NA	NA	NA	NA	0	78	78	57	376.696362900082	NA	NA	NA	NA	377.246183199808	377.246183199808	right	0	4.848562099970877	NA	NA	sev	001	2026-03-06_11h41.30.613	MR	2023.1.0	59.99876408589627	NA
mr_images/12_a.png	mr_images/12_a_z_315.png	left	ccw	45	NA	NA	NA	NA	0	79	79	51	382.11223449977115	NA	NA	NA	NA	382.6788734998554	382.6788734998554	left	1	3.406613700091839	NA	NA	sev	001	2026-03-06_11h41.30.613	MR	2023.1.0	59.99876408589627	NA
mr_images/12_a.png	mr_images/12_a_z_225.png	left	ccw	135	NA	NA	NA	NA	0	80	80	59	386.11586510017514	NA	NA	NA	NA	386.6446337001398	386.6446337001398	right	0	2.341985400300473	NA	NA	sev	001	2026-03-06_11h41.30.613	MR	2023.1.0	59.99876408589627	NA
mr_images/5_a.png	mr_images/5_b_z_45.png	right	cw	45	NA	NA	NA	NA	0	81	81	120	389.0113408998586	NA	NA	NA	NA	389.5670619001612	389.5670619001612	left	0	3.250901899766177	NA	NA	sev	001	2026-03-06_11h41.30.613	MR	2023.1.0	59.99876408589627	NA
mr_images/3_a.png	mr_images/3_a_z_90.png	left	cw	90	NA	NA	NA	NA	0	82	82	77	392.8482050998136	NA	NA	NA	NA	393.3773473999463	393.3773473999463	left	1	3.321111199911684	NA	NA	sev	001	2026-03-06_11h41.30.613	MR	2023.1.0	59.99876408589627	NA
mr_images/5_a.png	mr_images/5_a_z_135.png	left	cw	135	NA	NA	NA	NA	0	83	83	129	396.7269315999001	NA	NA	NA	NA	397.2934273998253	397.2934273998253	right	0	2.935286699794233	NA	NA	sev	001	2026-03-06_11h41.30.613	MR	2023.1.0	59.99876408589627	NA
mr_images/6_b.png	mr_images/6_b_z_135.png	left	cw	135	NA	NA	NA	NA	0	84	84	165	400.2595994998701	NA	NA	NA	NA	400.826276499778	400.826276499778	right	0	2.6304977000690997	NA	NA	sev	001	2026-03-06_11h41.30.613	MR	2023.1.0	59.99876408589627	NA
mr_images/5_a.png	mr_images/5_b_z_270.png	right	ccw	90	NA	NA	NA	NA	0	85	85	126	403.47580430004746	NA	NA	NA	NA	404.02835359983146	404.02835359983146	left	0	2.551840600091964	NA	NA	sev	001	2026-03-06_11h41.30.613	MR	2023.1.0	59.99876408589627	NA
mr_images/7_b.png	mr_images/7_b_z_135.png	left	cw	135	NA	NA	NA	NA	0	86	86	189	406.5964131001383	NA	NA	NA	NA	407.14381599985063	407.14381599985063	right	0	3.1657350002788007	NA	NA	sev	001	2026-03-06_11h41.30.613	MR	2023.1.0	59.99876408589627	NA
mr_images/7_a.png	mr_images/7_b_z_135.png	right	cw	135	NA	NA	NA	NA	0	87	87	176	410.3291772999801	NA	NA	NA	NA	410.8749207998626	410.8749207998626	right	1	3.103685799986124	NA	NA	sev	001	2026-03-06_11h41.30.613	MR	2023.1.0	59.99876408589627	NA
mr_images/4_b.png	mr_images/4_b_z_90.png	left	cw	90	NA	NA	NA	NA	0	88	88	113	414.00772099988535	NA	NA	NA	NA	414.5744243999943	414.5744243999943	left	1	3.1961656999774277	NA	NA	sev	001	2026-03-06_11h41.30.613	MR	2023.1.0	59.99876408589627	NA
mr_images/5_a.png	mr_images/5_b_z_135.png	right	cw	135	NA	NA	NA	NA	0	89	89	128	417.79058780008927	NA	NA	NA	NA	418.3431516001001	418.3431516001001	left	0	3.2516092001460493	NA	NA	sev	001	2026-03-06_11h41.30.613	MR	2023.1.0	59.99876408589627	NA
mr_images/4_b.png	mr_images/4_a_z_225.png	right	ccw	135	NA	NA	NA	NA	0	90	90	118	421.61109110014513	NA	NA	NA	NA	422.139951699879	422.139951699879	left	0	2.3975264001637697	NA	NA	sev	001	2026-03-06_11h41.30.613	MR	2023.1.0	59.99876408589627	NA
mr_images/3_b.png	mr_images/3_b_z_135.png	left	cw	135	NA	NA	NA	NA	0	91	91	93	424.5562935001217	NA	NA	NA	NA	425.12312529981136	425.12312529981136	right	0	1.756891000084579	NA	NA	sev	001	2026-03-06_11h41.30.613	MR	2023.1.0	59.99876408589627	NA
mr_images/6_a.png	mr_images/6_a_z_90.png	left	cw	90	NA	NA	NA	NA	0	92	92	149	426.9059366001747	NA	NA	NA	NA	427.4391254000366	427.4391254000366	left	1	2.6066355002112687	NA	NA	sev	001	2026-03-06_11h41.30.613	MR	2023.1.0	59.99876408589627	NA
mr_images/12_b.png	mr_images/12_b_z_270.png	left	ccw	90	NA	NA	NA	NA	0	93	93	67	430.0722539001145	NA	NA	NA	NA	430.6054104999639	430.6054104999639	left	1	4.479053299874067	NA	NA	sev	001	2026-03-06_11h41.30.613	MR	2023.1.0	59.99876408589627	NA
mr_images/11_b.png	mr_images/11_a_z_45.png	right	cw	45	NA	NA	NA	NA	0	94	94	36	435.1049448000267	NA	NA	NA	NA	435.67149269999936	435.67149269999936	left	0	2.6664927997626364	NA	NA	sev	001	2026-03-06_11h41.30.613	MR	2023.1.0	59.99876408589627	NA
mr_images/4_b.png	mr_images/4_b_z_45.png	left	cw	45	NA	NA	NA	NA	0	95	95	109	438.3543897997588	NA	NA	NA	NA	438.9098407998681	438.9098407998681	right	0	2.863160000182688	NA	NA	sev	001	2026-03-06_11h41.30.613	MR	2023.1.0	59.99876408589627	NA
mr_images/6_a.png	mr_images/6_b_z_225.png	right	ccw	135	NA	NA	NA	NA	0	96	96	154	441.7914553000592	NA	NA	NA	NA	442.3538118000142	442.3538118000142	left	0	1.8343854998238385	NA	NA	sev	001	2026-03-06_11h41.30.613	MR	2023.1.0	59.99876408589627	NA
mr_images/9_a.png	mr_images/9_b_z_90.png	right	cw	90	NA	NA	NA	NA	0	97	97	196	444.2202372997999	NA	NA	NA	NA	444.77052260003984	444.77052260003984	left	0	2.399994899984449	NA	NA	sev	001	2026-03-06_11h41.30.613	MR	2023.1.0	59.99876408589627	NA
mr_images/9_b.png	mr_images/9_a_z_225.png	right	ccw	135	NA	NA	NA	NA	0	98	98	214	447.2031621001661	NA	NA	NA	NA	447.753136199899	447.753136199899	left	0	2.8269686000421643	NA	NA	sev	001	2026-03-06_11h41.30.613	MR	2023.1.0	59.99876408589627	NA
mr_images/11_b.png	mr_images/11_b_z_45.png	left	cw	45	NA	NA	NA	NA	0	99	99	37	450.6027822000906	NA	NA	NA	NA	451.1691676997579	451.1691676997579	right	0	2.735349599737674	NA	NA	sev	001	2026-03-06_11h41.30.613	MR	2023.1.0	59.99876408589627	NA
mr_images/7_a.png	mr_images/7_b_z_225.png	right	ccw	135	NA	NA	NA	NA	0	100	100	178	453.9355954998173	NA	NA	NA	NA	454.4687537997961	454.4687537997961	left	0	2.5274625001475215	NA	NA	sev	001	2026-03-06_11h41.30.613	MR	2023.1.0	59.99876408589627	NA
mr_images/4_b.png	mr_images/4_b_z_135.png	left	cw	135	NA	NA	NA	NA	0	101	101	117	457.01863110018894	NA	NA	NA	NA	457.58508310001343	457.58508310001343	right	0	3.0632734997197986	NA	NA	sev	001	2026-03-06_11h41.30.613	MR	2023.1.0	59.99876408589627	NA
mr_images/6_b.png	mr_images/6_a_z_45.png	right	cw	45	NA	NA	NA	NA	0	102	102	156	460.667961999774	NA	NA	NA	NA	461.20119989989325	461.20119989989325	left	0	2.708008199930191	NA	NA	sev	001	2026-03-06_11h41.30.613	MR	2023.1.0	59.99876408589627	NA
mr_images/1_b.png	mr_images/1_a_z_135.png	right	cw	135	NA	NA	NA	NA	0	103	103	20	463.9341287999414	NA	NA	NA	NA	464.5007225000299	464.5007225000299	left	0	3.10271509969607	NA	NA	sev	001	2026-03-06_11h41.30.613	MR	2023.1.0	59.99876408589627	NA
mr_images/3_b.png	mr_images/3_b_z_90.png	left	cw	90	NA	NA	NA	NA	0	104	104	89	467.6336757000536	NA	NA	NA	NA	468.1833501998335	468.1833501998335	right	0	3.864731399808079	NA	NA	sev	001	2026-03-06_11h41.30.613	MR	2023.1.0	59.99876408589627	NA
mr_images/11_b.png	mr_images/11_a_z_270.png	right	ccw	90	NA	NA	NA	NA	0	105	105	42	472.0663978997618	NA	NA	NA	NA	472.5995722999796	472.5995722999796	left	0	3.3432718999683857	NA	NA	sev	001	2026-03-06_11h41.30.613	MR	2023.1.0	59.99876408589627	NA
mr_images/9_b.png	mr_images/9_b_z_315.png	left	ccw	45	NA	NA	NA	NA	0	106	106	207	475.9659510999918	NA	NA	NA	NA	476.4990632999688	476.4990632999688	right	0	2.950513200368732	NA	NA	sev	001	2026-03-06_11h41.30.613	MR	2023.1.0	59.99876408589627	NA
mr_images/11_a.png	mr_images/11_b_z_135.png	right	cw	135	NA	NA	NA	NA	0	107	107	32	479.48201610008255	NA	NA	NA	NA	480.03841640008613	480.03841640008613	left	0	4.6599057000130415	NA	NA	sev	001	2026-03-06_11h41.30.613	MR	2023.1.0	59.99876408589627	NA
mr_images/7_b.png	mr_images/7_a_z_45.png	right	cw	45	NA	NA	NA	NA	0	108	108	180	484.7188198999502	NA	NA	NA	NA	485.26569889998063	485.26569889998063	left	0	3.456989400088787	NA	NA	sev	001	2026-03-06_11h41.30.613	MR	2023.1.0	59.99876408589627	NA
mr_images/1_b.png	mr_images/1_a_z_315.png	right	ccw	45	NA	NA	NA	NA	0	109	109	14	488.7474214001559	NA	NA	NA	NA	489.29729969985783	489.29729969985783	left	0	4.327171700075269	NA	NA	sev	001	2026-03-06_11h41.30.613	MR	2023.1.0	59.99876408589627	NA
mr_images/11_a.png	mr_images/11_a_z_135.png	left	cw	135	NA	NA	NA	NA	0	110	110	33	493.64655360020697	NA	NA	NA	NA	494.18009349983186	494.18009349983186	right	0	4.201442600227892	NA	NA	sev	001	2026-03-06_11h41.30.613	MR	2023.1.0	59.99876408589627	NA
mr_images/4_a.png	mr_images/4_b_z_45.png	right	cw	45	NA	NA	NA	NA	0	111	111	96	498.4126976998523	NA	NA	NA	NA	498.9477018998005	498.9477018998005	right	1	3.0512864999473095	NA	NA	sev	001	2026-03-06_11h41.30.613	MR	2023.1.0	59.99876408589627	NA
mr_images/4_a.png	mr_images/4_b_z_90.png	right	cw	90	NA	NA	NA	NA	0	112	112	100	502.0164908999577	NA	NA	NA	NA	502.5456122998148	502.5456122998148	left	0	3.92405469994992	NA	NA	sev	001	2026-03-06_11h41.30.613	MR	2023.1.0	59.99876408589627	NA
mr_images/5_b.png	mr_images/5_b_z_90.png	left	cw	90	NA	NA	NA	NA	0	113	113	137	506.4950522999279	NA	NA	NA	NA	507.033864099998	507.033864099998	left	1	2.2082060999237	NA	NA	sev	001	2026-03-06_11h41.30.613	MR	2023.1.0	59.99876408589627	NA
mr_images/9_a.png	mr_images/9_a_z_225.png	left	ccw	135	NA	NA	NA	NA	0	114	114	203	509.265459800139	NA	NA	NA	NA	509.7941160998307	509.7941160998307	right	0	2.4160547996871173	NA	NA	sev	001	2026-03-06_11h41.30.613	MR	2023.1.0	59.99876408589627	NA
mr_images/9_b.png	mr_images/9_b_z_135.png	left	cw	135	NA	NA	NA	NA	0	115	115	213	512.2274632998742	NA	NA	NA	NA	512.7606254997663	512.7606254997663	left	1	2.626444600056857	NA	NA	sev	001	2026-03-06_11h41.30.613	MR	2023.1.0	59.99876408589627	NA
mr_images/4_a.png	mr_images/4_b_z_270.png	right	ccw	90	NA	NA	NA	NA	0	116	116	102	515.4103572000749	NA	NA	NA	NA	515.9602930997498	515.9602930997498	left	0	2.0434358003549278	NA	NA	sev	001	2026-03-06_11h41.30.613	MR	2023.1.0	59.99876408589627	NA
mr_images/1_b.png	mr_images/1_b_z_90.png	left	cw	90	NA	NA	NA	NA	0	117	117	17	518.0266299000941	NA	NA	NA	NA	518.5932244998403	518.5932244998403	right	0	2.545527100097388	NA	NA	sev	001	2026-03-06_11h41.30.613	MR	2023.1.0	59.99876408589627	NA
mr_images/9_a.png	mr_images/9_b_z_225.png	right	ccw	135	NA	NA	NA	NA	0	118	118	202	521.1595235997811	NA	NA	NA	NA	521.7261089999229	521.7261089999229	left	0	3.8722361996769905	NA	NA	sev	001	2026-03-06_11h41.30.613	MR	2023.1.0	59.99876408589627	NA
mr_images/12_a.png	mr_images/12_a_z_45.png	left	cw	45	NA	NA	NA	NA	0	119	119	49	525.62557129981	NA	NA	NA	NA	526.1588115999475	526.1588115999475	right	0	3.372763999737799	NA	NA	sev	001	2026-03-06_11h41.30.613	MR	2023.1.0	59.99876408589627	NA
mr_images/11_b.png	mr_images/11_a_z_90.png	right	cw	90	NA	NA	NA	NA	0	120	120	40	529.5620249998756	NA	NA	NA	NA	NA	530.1108595998958	right	1	3.2280855998396873	NA	NA	sev	001	2026-03-06_11h41.30.613	MR	2023.1.0	59.99876408589627	NA
mr_images/7_a.png	mr_images/7_a_z_225.png	left	ccw	135	NA	NA	NA	NA	0	121	121	179	533.3621068000793	NA	NA	NA	NA	533.9244035999291	533.9244035999291	right	0	2.704764500260353	NA	NA	sev	001	2026-03-06_11h41.30.613	MR	2023.1.0	59.99876408589627	NA
mr_images/4_a.png	mr_images/4_b_z_135.png	right	cw	135	NA	NA	NA	NA	0	122	122	104	536.6575512001291	NA	NA	NA	NA	537.1908248998225	537.1908248998225	left	0	1.9013839000836017	NA	NA	sev	001	2026-03-06_11h41.30.613	MR	2023.1.0	59.99876408589627	NA
mr_images/9_a.png	mr_images/9_a_z_315.png	left	ccw	45	NA	NA	NA	NA	0	123	123	195	539.1237312001176	NA	NA	NA	NA	539.6569161000662	539.6569161000662	right	0	3.036259199958294	NA	NA	sev	001	2026-03-06_11h41.30.613	MR	2023.1.0	59.99876408589627	NA
mr_images/3_b.png	mr_images/3_a_z_225.png	right	ccw	135	NA	NA	NA	NA	0	124	124	94	542.7232309998944	NA	NA	NA	NA	543.2594650001265	543.2594650001265	left	0	3.699695899616927	NA	NA	sev	001	2026-03-06_11h41.30.613	MR	2023.1.0	59.99876408589627	NA
mr_images/5_b.png	mr_images/5_a_z_90.png	right	cw	90	NA	NA	NA	NA	0	125	125	136	546.9893363998272	NA	NA	NA	NA	547.5560094001703	547.5560094001703	left	0	3.1454745000228286	NA	NA	sev	001	2026-03-06_11h41.30.613	MR	2023.1.0	59.99876408589627	NA
mr_images/9_a.png	mr_images/9_b_z_270.png	right	ccw	90	NA	NA	NA	NA	0	126	126	198	550.7220862000249	NA	NA	NA	NA	551.255289199762	551.255289199762	left	0	3.462592300027609	NA	NA	sev	001	2026-03-06_11h41.30.613	MR	2023.1.0	59.99876408589627	NA
mr_images/3_a.png	mr_images/3_a_z_225.png	left	ccw	135	NA	NA	NA	NA	0	127	127	83	554.7384575000033	NA	NA	NA	NA	555.2718460997567	555.2718460997567	right	0	2.7773250001482666	NA	NA	sev	001	2026-03-06_11h41.30.613	MR	2023.1.0	59.99876408589627	NA
mr_images/12_b.png	mr_images/12_a_z_90.png	right	cw	90	NA	NA	NA	NA	0	128	128	64	558.0711496998556	NA	NA	NA	NA	558.6042470000684	558.6042470000684	left	0	3.022517299745232	NA	NA	sev	001	2026-03-06_11h41.30.613	MR	2023.1.0	59.99876408589627	NA
mr_images/7_b.png	mr_images/7_a_z_270.png	right	ccw	90	NA	NA	NA	NA	0	129	129	186	561.6539063998498	NA	NA	NA	NA	562.2205701000057	562.2205701000057	right	1	3.144476499874145	NA	NA	sev	001	2026-03-06_11h41.30.613	MR	2023.1.0	59.99876408589627	NA
mr_images/3_a.png	mr_images/3_a_z_135.png	left	cw	135	NA	NA	NA	NA	0	130	130	81	565.3868085001595	NA	NA	NA	NA	565.9265688001178	565.9265688001178	right	0	3.5426263003610075	NA	NA	sev	001	2026-03-06_11h41.30.613	MR	2023.1.0	59.99876408589627	NA
mr_images/12_a.png	mr_images/12_b_z_315.png	right	ccw	45	NA	NA	NA	NA	0	131	131	50	569.490424099844	NA	NA	NA	NA	570.0527885998599	570.0527885998599	left	0	1.5995722999796271	NA	NA	sev	001	2026-03-06_11h41.30.613	MR	2023.1.0	59.99876408589627	NA
mr_images/7_b.png	mr_images/7_a_z_90.png	right	cw	90	NA	NA	NA	NA	0	132	132	184	571.6691804998554	NA	NA	NA	NA	572.2358221001923	572.2358221001923	left	0	2.897364499978721	NA	NA	sev	001	2026-03-06_11h41.30.613	MR	2023.1.0	59.99876408589627	NA
mr_images/7_a.png	mr_images/7_b_z_90.png	right	cw	90	NA	NA	NA	NA	0	133	133	172	575.152160000056	NA	NA	NA	NA	575.685128999874	575.685128999874	left	0	2.5343288998119533	NA	NA	sev	001	2026-03-06_11h41.30.613	MR	2023.1.0	59.99876408589627	NA
mr_images/11_a.png	mr_images/11_b_z_270.png	right	ccw	90	NA	NA	NA	NA	0	134	134	30	578.2516516000032	NA	NA	NA	NA	578.8077250001952	578.8077250001952	left	0	2.3685047002509236	NA	NA	sev	001	2026-03-06_11h41.30.613	MR	2023.1.0	59.99876408589627	NA
mr_images/11_a.png	mr_images/11_b_z_45.png	right	cw	45	NA	NA	NA	NA	0	135	135	24	581.205498999916	NA	NA	NA	NA	581.7343871998601	581.7343871998601	left	0	3.933539899997413	NA	NA	sev	001	2026-03-06_11h41.30.613	MR	2023.1.0	59.99876408589627	NA
mr_images/11_b.png	mr_images/11_a_z_225.png	right	ccw	135	NA	NA	NA	NA	0	136	136	46	585.7005023998208	NA	NA	NA	NA	586.2339193997905	586.2339193997905	left	0	2.5491669001057744	NA	NA	sev	001	2026-03-06_11h41.30.613	MR	2023.1.0	59.99876408589627	NA
mr_images/6_a.png	mr_images/6_b_z_45.png	right	cw	45	NA	NA	NA	NA	0	137	137	144	588.8002073001117	NA	NA	NA	NA	589.3334451001137	589.3334451001137	left	0	3.610461999662221	NA	NA	sev	001	2026-03-06_11h41.30.613	MR	2023.1.0	59.99876408589627	NA
mr_images/6_b.png	mr_images/6_b_z_315.png	left	ccw	45	NA	NA	NA	NA	0	138	138	159	592.9661944000982	NA	NA	NA	NA	593.5328139001504	593.5328139001504	right	0	4.874944500159472	NA	NA	sev	001	2026-03-06_11h41.30.613	MR	2023.1.0	59.99876408589627	NA
mr_images/6_b.png	mr_images/6_a_z_225.png	right	ccw	135	NA	NA	NA	NA	0	139	139	166	598.4321563998237	NA	NA	NA	NA	598.9653647998348	598.9653647998348	left	0	1.969877399969846	NA	NA	sev	001	2026-03-06_11h41.30.613	MR	2023.1.0	59.99876408589627	NA
mr_images/1_a.png	mr_images/1_a_z_225.png	left	ccw	135	NA	NA	NA	NA	0	140	140	11	600.9650908000767	NA	NA	NA	NA	601.498427500017	601.498427500017	right	0	3.335225800052285	NA	NA	sev	001	2026-03-06_11h41.30.613	MR	2023.1.0	59.99876408589627	NA
mr_images/3_a.png	mr_images/3_a_z_315.png	left	ccw	45	NA	NA	NA	NA	0	141	141	75	604.8646860998124	NA	NA	NA	NA	605.4312371998094	605.4312371998094	right	0	4.236331300344318	NA	NA	sev	001	2026-03-06_11h41.30.613	MR	2023.1.0	59.99876408589627	NA
mr_images/12_b.png	mr_images/12_b_z_315.png	left	ccw	45	NA	NA	NA	NA	0	142	142	63	609.6974682998843	NA	NA	NA	NA	610.230574300047	610.230574300047	right	0	3.694741299841553	NA	NA	sev	001	2026-03-06_11h41.30.613	MR	2023.1.0	59.99876408589627	NA
mr_images/5_b.png	mr_images/5_b_z_45.png	left	cw	45	NA	NA	NA	NA	0	143	143	133	613.94662769977	NA	NA	NA	NA	614.4798599998467	614.4798599998467	None	0	NA	NA	NA	sev	001	2026-03-06_11h41.30.613	MR	2023.1.0	59.99876408589627	NA
mr_images/5_b.png	mr_images/5_a_z_45.png	right	cw	45	NA	NA	NA	NA	0	144	144	132	619.4625205001794	NA	NA	NA	NA	NA	619.9969832999632	right	1	1.4889106997288764	NA	NA	sev	001	2026-03-06_11h41.30.613	MR	2023.1.0	59.99876408589627	NA
mr_images/4_b.png	mr_images/4_a_z_90.png	right	cw	90	NA	NA	NA	NA	0	145	145	112	621.5122615001164	NA	NA	NA	NA	622.078897499945	622.078897499945	left	0	3.2765699001029134	NA	NA	sev	001	2026-03-06_11h41.30.613	MR	2023.1.0	59.99876408589627	NA
mr_images/11_b.png	mr_images/11_b_z_90.png	left	cw	90	NA	NA	NA	NA	0	146	146	41	625.3786251000129	NA	NA	NA	NA	625.928078299854	625.928078299854	right	0	2.934844400268048	NA	NA	sev	001	2026-03-06_11h41.30.613	MR	2023.1.0	59.99876408589627	NA
mr_images/1_b.png	mr_images/1_b_z_225.png	left	ccw	135	NA	NA	NA	NA	0	147	147	23	628.8947044997476	NA	NA	NA	NA	629.4321902999654	629.4321902999654	right	0	2.954015000257641	NA	NA	sev	001	2026-03-06_11h41.30.613	MR	2023.1.0	59.99876408589627	NA
mr_images/3_b.png	mr_images/3_a_z_135.png	right	cw	135	NA	NA	NA	NA	0	148	148	92	632.415036899969	NA	NA	NA	NA	632.9439761000685	632.9439761000685	left	0	2.451476899906993	NA	NA	sev	001	2026-03-06_11h41.30.613	MR	2023.1.0	59.99876408589627	NA
mr_images/11_a.png	mr_images/11_a_z_90.png	left	cw	90	NA	NA	NA	NA	0	149	149	29	635.4270113999955	NA	NA	NA	NA	635.960204300005	635.960204300005	left	1	2.908510699868202	NA	NA	sev	001	2026-03-06_11h41.30.613	MR	2023.1.0	59.99876408589627	NA
mr_images/3_a.png	mr_images/3_b_z_45.png	right	cw	45	NA	NA	NA	NA	0	150	150	72	638.8933314997703	NA	NA	NA	NA	639.4598333998583	639.4598333998583	left	0	3.2822167999111116	NA	NA	sev	001	2026-03-06_11h41.30.613	MR	2023.1.0	59.99876408589627	NA
mr_images/5_b.png	mr_images/5_a_z_135.png	right	cw	135	NA	NA	NA	NA	0	151	151	140	642.7593411998823	NA	NA	NA	NA	643.2925411001779	643.2925411001779	left	0	2.4777895999141037	NA	NA	sev	001	2026-03-06_11h41.30.613	MR	2023.1.0	59.99876408589627	NA
mr_images/9_b.png	mr_images/9_a_z_270.png	right	ccw	90	NA	NA	NA	NA	0	152	152	210	645.7923380001448	NA	NA	NA	NA	646.3256032001227	646.3256032001227	left	0	3.1118821003474295	NA	NA	sev	001	2026-03-06_11h41.30.613	MR	2023.1.0	59.99876408589627	NA
mr_images/3_a.png	mr_images/3_b_z_270.png	right	ccw	90	NA	NA	NA	NA	0	153	153	78	649.4585568001494	NA	NA	NA	NA	649.9916465999559	649.9916465999559	left	0	2.4766798997297883	NA	NA	sev	001	2026-03-06_11h41.30.613	MR	2023.1.0	59.99876408589627	NA
mr_images/7_a.png	mr_images/7_b_z_270.png	right	ccw	90	NA	NA	NA	NA	0	154	154	174	652.4913306999952	NA	NA	NA	NA	653.0245559001341	653.0245559001341	left	0	3.2407058998942375	NA	NA	sev	001	2026-03-06_11h41.30.613	MR	2023.1.0	59.99876408589627	NA
mr_images/5_a.png	mr_images/5_a_z_90.png	left	cw	90	NA	NA	NA	NA	0	155	155	125	656.290811299812	NA	NA	NA	NA	656.8240339001641	656.8240339001641	right	0	3.642888600006699	NA	NA	sev	001	2026-03-06_11h41.30.613	MR	2023.1.0	59.99876408589627	NA
mr_images/11_a.png	mr_images/11_b_z_90.png	right	cw	90	NA	NA	NA	NA	0	156	156	28	660.4901854000054	NA	NA	NA	NA	661.0234091999009	661.0234091999009	left	0	2.572612900286913	NA	NA	sev	001	2026-03-06_11h41.30.613	MR	2023.1.0	59.99876408589627	NA
mr_images/7_a.png	mr_images/7_a_z_45.png	left	cw	45	NA	NA	NA	NA	0	157	157	169	663.6231188997626	NA	NA	NA	NA	664.1564210997894	664.1564210997894	left	1	2.989047000184655	NA	NA	sev	001	2026-03-06_11h41.30.613	MR	2023.1.0	59.99876408589627	NA
mr_images/11_b.png	mr_images/11_b_z_135.png	left	cw	135	NA	NA	NA	NA	0	158	158	45	667.1726150000468	NA	NA	NA	NA	667.7060062000528	667.7060062000528	right	0	3.945423599798232	NA	NA	sev	001	2026-03-06_11h41.30.613	MR	2023.1.0	59.99876408589627	NA
mr_images/11_a.png	mr_images/11_a_z_45.png	left	cw	45	NA	NA	NA	NA	0	159	159	25	671.6720471000299	NA	NA	NA	NA	672.205200899858	672.205200899858	right	0	2.9073148001916707	NA	NA	sev	001	2026-03-06_11h41.30.613	MR	2023.1.0	59.99876408589627	NA
mr_images/6_a.png	mr_images/6_b_z_315.png	right	ccw	45	NA	NA	NA	NA	0	160	160	146	675.1382244997658	NA	NA	NA	NA	675.6714408998378	675.6714408998378	left	0	1.6625536000356078	NA	NA	sev	001	2026-03-06_11h41.30.613	MR	2023.1.0	59.99876408589627	NA
mr_images/5_b.png	mr_images/5_b_z_135.png	left	cw	135	NA	NA	NA	NA	0	161	161	141	677.3579506999813	NA	NA	NA	NA	NA	677.8878274997696	right	0	2.7777612996287644	NA	NA	sev	001	2026-03-06_11h41.30.613	MR	2023.1.0	59.99876408589627	NA
mr_images/4_a.png	mr_images/4_a_z_315.png	left	ccw	45	NA	NA	NA	NA	0	162	162	99	680.6874156999402	NA	NA	NA	NA	681.2207427001558	681.2207427001558	right	0	2.8722517997957766	NA	NA	sev	001	2026-03-06_11h41.30.613	MR	2023.1.0	59.99876408589627	NA
mr_images/3_b.png	mr_images/3_a_z_270.png	right	ccw	90	NA	NA	NA	NA	0	163	163	90	684.1203076001257	NA	NA	NA	NA	684.6534796999767	684.6534796999767	left	0	2.066481300164014	NA	NA	sev	001	2026-03-06_11h41.30.613	MR	2023.1.0	59.99876408589627	NA
mr_images/7_a.png	mr_images/7_a_z_270.png	left	ccw	90	NA	NA	NA	NA	0	164	164	175	686.7366194999777	NA	NA	NA	NA	687.2698526000604	687.2698526000604	right	0	2.2344484999775887	NA	NA	sev	001	2026-03-06_11h41.30.613	MR	2023.1.0	59.99876408589627	NA
mr_images/7_b.png	mr_images/7_a_z_135.png	right	cw	135	NA	NA	NA	NA	0	165	165	188	689.5362982000224	NA	NA	NA	NA	690.10268120002	690.10268120002	left	0	2.3633516002446413	NA	NA	sev	001	2026-03-06_11h41.30.613	MR	2023.1.0	59.99876408589627	NA
mr_images/3_a.png	mr_images/3_b_z_135.png	right	cw	135	NA	NA	NA	NA	0	166	166	80	692.4859088999219	NA	NA	NA	NA	693.0190464998595	693.0190464998595	left	0	2.263223099987954	NA	NA	sev	001	2026-03-06_11h41.30.613	MR	2023.1.0	59.99876408589627	NA
mr_images/3_b.png	mr_images/3_b_z_45.png	left	cw	45	NA	NA	NA	NA	0	167	167	85	695.3021003999747	NA	NA	NA	NA	695.8352338001132	695.8352338001132	right	0	4.800537300296128	NA	NA	sev	001	2026-03-06_11h41.30.613	MR	2023.1.0	59.99876408589627	NA
mr_images/1_a.png	mr_images/1_a_z_135.png	left	cw	135	NA	NA	NA	NA	0	168	168	9	700.6679369001649	NA	NA	NA	NA	701.2012156997807	701.2012156997807	left	1	2.5828160997480154	NA	NA	sev	001	2026-03-06_11h41.30.613	MR	2023.1.0	59.99876408589627	NA
mr_images/4_a.png	mr_images/4_a_z_90.png	left	cw	90	NA	NA	NA	NA	0	169	169	101	703.80088720005	NA	NA	NA	NA	704.3342575998977	704.3342575998977	right	0	3.662595800124109	NA	NA	sev	001	2026-03-06_11h41.30.613	MR	2023.1.0	59.99876408589627	NA
mr_images/11_a.png	mr_images/11_b_z_315.png	right	ccw	45	NA	NA	NA	NA	0	170	170	26	708.0170848998241	NA	NA	NA	NA	708.5721558001824	708.5721558001824	left	0	2.3988708001561463	NA	NA	sev	001	2026-03-06_11h41.30.613	MR	2023.1.0	59.99876408589627	NA
mr_images/6_a.png	mr_images/6_b_z_135.png	right	cw	135	NA	NA	NA	NA	0	171	171	152	710.987433699891	NA	NA	NA	NA	711.5164740001783	711.5164740001783	left	0	2.256656399928034	NA	NA	sev	001	2026-03-06_11h41.30.613	MR	2023.1.0	59.99876408589627	NA
mr_images/3_a.png	mr_images/3_b_z_90.png	right	cw	90	NA	NA	NA	NA	0	172	172	76	713.7994389999658	NA	NA	NA	NA	714.3329416997731	714.3329416997731	right	1	4.217783300206065	NA	NA	sev	001	2026-03-06_11h41.30.613	MR	2023.1.0	59.99876408589627	NA
mr_images/4_a.png	mr_images/4_a_z_45.png	left	cw	45	NA	NA	NA	NA	0	173	173	97	718.5821519000456	NA	NA	NA	NA	719.1153147998266	719.1153147998266	right	0	3.9100577998906374	NA	NA	sev	001	2026-03-06_11h41.30.613	MR	2023.1.0	59.99876408589627	NA
mr_images/1_b.png	mr_images/1_a_z_45.png	right	cw	45	NA	NA	NA	NA	0	174	174	12	723.048146000132	NA	NA	NA	NA	723.6030478999019	723.6030478999019	right	1	2.7025748998858035	NA	NA	sev	001	2026-03-06_11h41.30.613	MR	2023.1.0	59.99876408589627	NA
mr_images/9_a.png	mr_images/9_a_z_45.png	left	cw	45	NA	NA	NA	NA	0	175	175	193	726.3353097997606	NA	NA	NA	NA	726.8643442997709	726.8643442997709	right	0	4.2589501002803445	NA	NA	sev	001	2026-03-06_11h41.30.613	MR	2023.1.0	59.99876408589627	NA
mr_images/6_b.png	mr_images/6_a_z_270.png	right	ccw	90	NA	NA	NA	NA	0	176	176	162	731.1470535001718	NA	NA	NA	NA	731.7136687999591	731.7136687999591	left	0	2.5004875999875367	NA	NA	sev	001	2026-03-06_11h41.30.613	MR	2023.1.0	59.99876408589627	NA
mr_images/1_a.png	mr_images/1_b_z_90.png	right	cw	90	NA	NA	NA	NA	0	177	177	4	734.2467049998231	NA	NA	NA	NA	734.7796990000643	734.7796990000643	left	0	3.373814099933952	NA	NA	sev	001	2026-03-06_11h41.30.613	MR	2023.1.0	59.99876408589627	NA
mr_images/7_a.png	mr_images/7_b_z_315.png	right	ccw	45	NA	NA	NA	NA	0	178	178	170	738.1793884001672	NA	NA	NA	NA	738.6989763001911	738.6989763001911	left	0	1.765741199720651	NA	NA	sev	001	2026-03-06_11h41.30.613	MR	2023.1.0	59.99876408589627	NA
mr_images/6_a.png	mr_images/6_a_z_270.png	left	ccw	90	NA	NA	NA	NA	0	179	179	151	740.483323500026	NA	NA	NA	NA	741.0122549999505	741.0122549999505	right	0	2.0322354999370873	NA	NA	sev	001	2026-03-06_11h41.30.613	MR	2023.1.0	59.99876408589627	NA
mr_images/7_a.png	mr_images/7_a_z_90.png	left	cw	90	NA	NA	NA	NA	0	180	180	173	743.0621217000298	NA	NA	NA	NA	743.595281700138	743.595281700138	right	0	3.40016800025478	NA	NA	sev	001	2026-03-06_11h41.30.613	MR	2023.1.0	59.99876408589627	NA
mr_images/7_a.png	mr_images/7_a_z_315.png	left	ccw	45	NA	NA	NA	NA	0	181	181	171	747.01593639981	NA	NA	NA	NA	747.5659177000634	747.5659177000634	right	0	2.4026731001213193	NA	NA	sev	001	2026-03-06_11h41.30.613	MR	2023.1.0	59.99876408589627	NA
mr_images/5_b.png	mr_images/5_b_z_270.png	left	ccw	90	NA	NA	NA	NA	0	182	182	139	749.9987201001495	NA	NA	NA	NA	750.5274189999327	750.5274189999327	right	0	2.353858499787748	NA	NA	sev	001	2026-03-06_11h41.30.613	MR	2023.1.0	59.99876408589627	NA
mr_images/7_b.png	mr_images/7_a_z_225.png	right	ccw	135	NA	NA	NA	NA	0	183	183	190	752.9106931001879	NA	NA	NA	NA	753.4439807999879	753.4439807999879	left	0	3.4698943998664618	NA	NA	sev	001	2026-03-06_11h41.30.613	MR	2023.1.0	59.99876408589627	NA
mr_images/1_b.png	mr_images/1_b_z_45.png	left	cw	45	NA	NA	NA	NA	0	184	184	13	756.9435212998651	NA	NA	NA	NA	757.5101030999795	757.5101030999795	right	0	3.0211124001070857	NA	NA	sev	001	2026-03-06_11h41.30.613	MR	2023.1.0	59.99876408589627	NA
mr_images/7_a.png	mr_images/7_a_z_135.png	left	cw	135	NA	NA	NA	NA	0	185	185	177	760.5598054002039	NA	NA	NA	NA	761.0928858001716	761.0928858001716	right	0	3.641018799971789	NA	NA	sev	001	2026-03-06_11h41.30.613	MR	2023.1.0	59.99876408589627	NA
mr_images/7_b.png	mr_images/7_a_z_315.png	right	ccw	45	NA	NA	NA	NA	0	186	186	182	764.7590668997727	NA	NA	NA	NA	765.2923412001692	765.2923412001692	left	0	3.022231800016016	NA	NA	sev	001	2026-03-06_11h41.30.613	MR	2023.1.0	59.99876408589627	NA
mr_images/6_a.png	mr_images/6_a_z_135.png	left	cw	135	NA	NA	NA	NA	0	187	187	153	768.3418765999377	NA	NA	NA	NA	768.8751396001317	768.8751396001317	right	0	3.170034599956125	NA	NA	sev	001	2026-03-06_11h41.30.613	MR	2023.1.0	59.99876408589627	NA
mr_images/5_a.png	mr_images/5_a_z_315.png	left	ccw	45	NA	NA	NA	NA	0	188	188	123	772.0747588998638	NA	NA	NA	NA	772.6107394997962	772.6107394997962	right	0	3.241556900087744	NA	NA	sev	001	2026-03-06_11h41.30.613	MR	2023.1.0	59.99876408589627	NA
mr_images/1_a.png	mr_images/1_a_z_45.png	left	cw	45	NA	NA	NA	NA	0	189	189	1	775.8784567001276	NA	NA	NA	NA	776.4074232000858	776.4074232000858	right	0	2.8592979996465147	NA	NA	sev	001	2026-03-06_11h41.30.613	MR	2023.1.0	59.99876408589627	NA
mr_images/12_b.png	mr_images/12_a_z_315.png	right	ccw	45	NA	NA	NA	NA	0	190	190	62	779.2903804997914	NA	NA	NA	NA	779.8236428997479	779.8236428997479	left	0	1.3851898000575602	NA	NA	sev	001	2026-03-06_11h41.30.613	MR	2023.1.0	59.99876408589627	NA
mr_images/1_a.png	mr_images/1_b_z_45.png	right	cw	45	NA	NA	NA	NA	0	191	191	0	781.2402753001079	NA	NA	NA	NA	781.7733494001441	781.7733494001441	right	1	2.006996399722994	NA	NA	sev	001	2026-03-06_11h41.30.613	MR	2023.1.0	59.99876408589627	NA
mr_images/11_b.png	mr_images/11_a_z_315.png	right	ccw	45	NA	NA	NA	NA	0	192	192	38	783.8063892000355	NA	NA	NA	NA	784.3396660001017	784.3396660001017	left	0	2.4062534999102354	NA	NA	sev	001	2026-03-06_11h41.30.613	MR	2023.1.0	59.99876408589627	NA
mr_images/11_b.png	mr_images/11_b_z_315.png	left	ccw	45	NA	NA	NA	NA	0	193	193	39	786.7727280999534	NA	NA	NA	NA	787.3059072000906	787.3059072000906	left	1	3.611881900113076	NA	NA	sev	001	2026-03-06_11h41.30.613	MR	2023.1.0	59.99876408589627	NA
mr_images/9_a.png	mr_images/9_a_z_135.png	left	cw	135	NA	NA	NA	NA	0	194	194	201	790.9387762998231	NA	NA	NA	NA	791.4720235997811	791.4720235997811	right	0	2.4364300002343953	NA	NA	sev	001	2026-03-06_11h41.30.613	MR	2023.1.0	59.99876408589627	NA
mr_images/6_b.png	mr_images/6_b_z_225.png	left	ccw	135	NA	NA	NA	NA	0	195	195	167	793.9385083997622	NA	NA	NA	NA	794.4716656999663	794.4716656999663	right	0	2.8350753001868725	NA	NA	sev	001	2026-03-06_11h41.30.613	MR	2023.1.0	59.99876408589627	NA
mr_images/3_a.png	mr_images/3_a_z_45.png	left	cw	45	NA	NA	NA	NA	0	196	196	73	797.3378404001705	NA	NA	NA	NA	797.8711056998	797.8711056998	right	0	4.702452899888158	NA	NA	sev	001	2026-03-06_11h41.30.613	MR	2023.1.0	59.99876408589627	NA
mr_images/1_a.png	mr_images/1_b_z_270.png	right	ccw	90	NA	NA	NA	NA	0	197	197	6	802.60375439981	NA	NA	NA	NA	803.1412973999977	803.1412973999977	right	1	3.424983599688858	NA	NA	sev	001	2026-03-06_11h41.30.613	MR	2023.1.0	59.99876408589627	NA
mr_images/3_b.png	mr_images/3_a_z_315.png	right	ccw	45	NA	NA	NA	NA	0	198	198	86	806.5909376000054	NA	NA	NA	NA	807.1365122999996	807.1365122999996	left	0	1.1617864998988807	NA	NA	sev	001	2026-03-06_11h41.30.613	MR	2023.1.0	59.99876408589627	NA
mr_images/3_b.png	mr_images/3_b_z_315.png	left	ccw	45	NA	NA	NA	NA	0	199	199	87	808.3197634001262	NA	NA	NA	NA	808.8860800000839	808.8860800000839	right	0	1.0302539002150295	NA	NA	sev	001	2026-03-06_11h41.30.613	MR	2023.1.0	59.99876408589627	NA
mr_images/9_b.png	mr_images/9_b_z_90.png	left	cw	90	NA	NA	NA	NA	0	200	200	209	809.9361386997625	NA	NA	NA	NA	810.4694678001106	810.4694678001106	right	0	1.933152699843049	NA	NA	sev	001	2026-03-06_11h41.30.613	MR	2023.1.0	59.99876408589627	NA
mr_images/11_b.png	mr_images/11_b_z_270.png	left	ccw	90	NA	NA	NA	NA	0	201	201	43	812.4191181999631	NA	NA	NA	NA	812.9524070001207	812.9524070001207	left	1	3.846958599984646	NA	NA	sev	001	2026-03-06_11h41.30.613	MR	2023.1.0	59.99876408589627	NA
mr_images/6_b.png	mr_images/6_a_z_90.png	right	cw	90	NA	NA	NA	NA	0	202	202	160	816.8184961997904	NA	NA	NA	NA	817.3517363001592	817.3517363001592	left	0	3.1541778999380767	NA	NA	sev	001	2026-03-06_11h41.30.613	MR	2023.1.0	59.99876408589627	NA
mr_images/12_b.png	mr_images/12_b_z_135.png	left	cw	135	NA	NA	NA	NA	0	203	203	69	820.5346678998321	NA	NA	NA	NA	821.0679266001098	821.0679266001098	right	0	2.4918005000799894	NA	NA	sev	001	2026-03-06_11h41.30.613	MR	2023.1.0	59.99876408589627	NA
mr_images/3_a.png	mr_images/3_b_z_315.png	right	ccw	45	NA	NA	NA	NA	0	204	204	74	823.5842051999643	NA	NA	NA	NA	824.1175724999048	824.1175724999048	left	0	2.9608975001610816	NA	NA	sev	001	2026-03-06_11h41.30.613	MR	2023.1.0	59.99876408589627	NA
mr_images/6_b.png	mr_images/6_a_z_315.png	right	ccw	45	NA	NA	NA	NA	0	205	205	158	827.1003747000359	NA	NA	NA	NA	827.6335857999511	827.6335857999511	left	0	2.3960477001965046	NA	NA	sev	001	2026-03-06_11h41.30.613	MR	2023.1.0	59.99876408589627	NA
mr_images/9_b.png	mr_images/9_b_z_225.png	left	ccw	135	NA	NA	NA	NA	0	206	206	215	830.0499674999155	NA	NA	NA	NA	830.5833180001937	830.5833180001937	right	0	2.3195015001110733	NA	NA	sev	001	2026-03-06_11h41.30.613	MR	2023.1.0	59.99876408589627	NA
mr_images/5_a.png	mr_images/5_b_z_315.png	right	ccw	45	NA	NA	NA	NA	0	207	207	122	832.9329071999528	NA	NA	NA	NA	833.4662095000967	833.4662095000967	left	0	2.988354000262916	NA	NA	sev	001	2026-03-06_11h41.30.613	MR	2023.1.0	59.99876408589627	NA
mr_images/1_a.png	mr_images/1_a_z_315.png	left	ccw	45	NA	NA	NA	NA	0	208	208	3	836.4824080001563	NA	NA	NA	NA	837.0157730001956	837.0157730001956	right	0	3.896742899902165	NA	NA	sev	001	2026-03-06_11h41.30.613	MR	2023.1.0	59.99876408589627	NA
mr_images/1_a.png	mr_images/1_b_z_135.png	right	cw	135	NA	NA	NA	NA	0	209	209	8	840.9317640000954	NA	NA	NA	NA	841.4665490998887	841.4665490998887	left	0	2.0921207000501454	NA	NA	sev	001	2026-03-06_11h41.30.613	MR	2023.1.0	59.99876408589627	NA
mr_images/12_b.png	mr_images/12_a_z_270.png	right	ccw	90	NA	NA	NA	NA	0	210	210	66	843.5814462997951	NA	NA	NA	NA	844.1158519000746	844.1158519000746	left	0	1.9240337000228465	NA	NA	sev	001	2026-03-06_11h41.30.613	MR	2023.1.0	59.99876408589627	NA
mr_images/4_b.png	mr_images/4_b_z_270.png	left	ccw	90	NA	NA	NA	NA	0	211	211	115	846.0644736001268	NA	NA	NA	NA	846.5977626000531	846.5977626000531	right	0	2.322786900214851	NA	NA	sev	001	2026-03-06_11h41.30.613	MR	2023.1.0	59.99876408589627	NA
mr_images/7_b.png	mr_images/7_b_z_90.png	left	cw	90	NA	NA	NA	NA	0	212	212	185	848.947405199986	NA	NA	NA	NA	849.4806591998786	849.4806591998786	right	0	2.766967600211501	NA	NA	sev	001	2026-03-06_11h41.30.613	MR	2023.1.0	59.99876408589627	NA
mr_images/4_a.png	mr_images/4_b_z_225.png	right	ccw	135	NA	NA	NA	NA	0	213	213	106	852.2803040998988	NA	NA	NA	NA	852.8135274997912	852.8135274997912	left	0	2.4651942998170853	NA	NA	sev	001	2026-03-06_11h41.30.613	MR	2023.1.0	59.99876408589627	NA
mr_images/1_a.png	mr_images/1_a_z_270.png	left	ccw	90	NA	NA	NA	NA	0	214	214	7	855.2964131999761	NA	NA	NA	NA	855.8297556000762	855.8297556000762	right	0	2.805975100025534	NA	NA	sev	001	2026-03-06_11h41.30.613	MR	2023.1.0	59.99876408589627	NA
mr_images/9_a.png	mr_images/9_b_z_45.png	right	cw	45	NA	NA	NA	NA	0	215	215	192	858.6626928998157	NA	NA	NA	NA	859.1958936001174	859.1958936001174	left	0	2.6137757999822497	NA	NA	sev	001	2026-03-06_11h41.30.613	MR	2023.1.0	59.99876408589627	NA
NA	NA	NA	NA	NA	NA	NA	NA	NA	NA	NA	NA	NA	NA	NA	NA	NA	NA	NA	NA	NA	NA	NA	861.8289839001372	863.8287098999135	NA	NA	NA	NA	NA	NA	NA
