sequence	training_session.thisRepN	training_session.thisTrialN	training_session.thisN	training_session.thisIndex	training_2n.thisRepN	training_2n.thisTrialN	training_2n.thisN	training_2n.thisIndex	training_3n.thisRepN	training_3n.thisTrialN	training_3n.thisN	training_3n.thisIndex	training_4n.thisRepN	training_4n.thisTrialN	training_4n.thisN	training_4n.thisIndex	allrep_2nback.thisRepN	allrep_2nback.thisTrialN	allrep_2nback.thisN	allrep_2nback.thisIndex	trials_2nback.thisRepN	trials_2nback.thisTrialN	trials_2nback.thisN	trials_2nback.thisIndex	allrep_3nback.thisRepN	allrep_3nback.thisTrialN	allrep_3nback.thisN	allrep_3nback.thisIndex	trials_3nback.thisRepN	trials_3nback.thisTrialN	trials_3nback.thisN	trials_3nback.thisIndex	allrep_4nback.thisRepN	allrep_4nback.thisTrialN	allrep_4nback.thisN	allrep_4nback.thisIndex	trials_4nback.thisRepN	trials_4nback.thisTrialN	trials_4nback.thisN	trials_4nback.thisIndex	buffer02_txt.started	test_griddot_resp2.started	test_griddot_resp2.keys	test_griddot_resp2.rt	buffer23_txt.started	test_griddot_resp3.started	test_griddot_resp3.keys	test_griddot_resp3.rt	buffer34_txt.started	test_griddot_resp4.started	test_griddot_resp4.keys	test_griddot_resp4.rt	confirm_resp.started	confirm_resp.keys	confirm_resp.rt	instr_text_2.started	buffer02_txt.stopped	griddot_resp2.started	griddot_resp2.keys	griddot_resp2.rt	buffer23_txt.stopped	griddot_resp3.started	griddot_resp3.keys	griddot_resp3.rt	buffer34_txt.stopped	griddot_resp4.started	griddot_resp4.keys	griddot_resp4.rt	participant	session	date	expName	psychopyVersion	frameRate	...76
[(2, 2), (2, 1), (2, 0), (2, 1), (2, 0), (2, 0), (2, 0), (1, 0)]	0	0	0	0	0	0	0	113	NA	NA	NA	NA	NA	NA	NA	NA	NA	NA	NA	NA	NA	NA	NA	NA	NA	NA	NA	NA	NA	NA	NA	NA	NA	NA	NA	NA	NA	NA	NA	NA	334.28693559998646	338.43122639972717	['left']	[12.330437900032848]	NA	NA	NA	NA	NA	NA	NA	NA	NA	NA	NA	NA	NA	NA	NA	NA	NA	NA	NA	NA	NA	NA	NA	NA	eaj	001	2026-03-03_16h44.19.265	SS	2023.1.0	59.91180975828166	NA
[(2, 1), (0, 0), (2, 0), (0, 0), (0, 2), (0, 2), (0, 1), (0, 2)]	0	0	0	0	0	1	1	663	NA	NA	NA	NA	NA	NA	NA	NA	NA	NA	NA	NA	NA	NA	NA	NA	NA	NA	NA	NA	NA	NA	NA	NA	NA	NA	NA	NA	NA	NA	NA	NA	NA	355.32897149957716	['left', 'left']	[4.986414600163698, 11.216960099991411]	NA	NA	NA	NA	NA	NA	NA	NA	NA	NA	NA	NA	NA	NA	NA	NA	NA	NA	NA	NA	NA	NA	NA	NA	eaj	001	2026-03-03_16h44.19.265	SS	2023.1.0	59.91180975828166	NA
[(2, 0), (1, 1), (1, 1), (1, 2), (2, 2), (0, 0), (2, 2), (0, 0)]	0	0	0	0	0	2	2	582	NA	NA	NA	NA	NA	NA	NA	NA	NA	NA	NA	NA	NA	NA	NA	NA	NA	NA	NA	NA	NA	NA	NA	NA	NA	NA	NA	NA	NA	NA	NA	NA	NA	372.3432792997919	['left', 'left', 'left', 'left', 'left', 'left']	[5.636505899950862, 7.266982899978757, 8.93546920036897, 10.897832400165498, 12.775059000123292, 14.945325800217688]	NA	NA	NA	NA	NA	NA	NA	NA	NA	NA	NA	NA	NA	NA	NA	NA	NA	NA	NA	NA	NA	NA	NA	NA	eaj	001	2026-03-03_16h44.19.265	SS	2023.1.0	59.91180975828166	NA
[(1, 1), (2, 2), (0, 2), (1, 1), (1, 1), (1, 0), (1, 1), (1, 1), (0, 1)]	0	0	0	0	NA	NA	NA	NA	0	0	0	670	NA	NA	NA	NA	NA	NA	NA	NA	NA	NA	NA	NA	NA	NA	NA	NA	NA	NA	NA	NA	NA	NA	NA	NA	NA	NA	NA	NA	NA	NA	NA	NA	389.29104859987274	393.3571521998383	['right', 'right', 'left', 'right', 'right', 'left']	[6.904966800007969, 8.66263009980321, 10.80900020012632, 12.616043800022453, 14.481320799794048, 17.126533799804747]	NA	NA	NA	NA	NA	NA	NA	NA	NA	NA	NA	NA	NA	NA	NA	NA	NA	NA	NA	NA	eaj	001	2026-03-03_16h44.19.265	SS	2023.1.0	59.91180975828166	NA
[(2, 2), (1, 2), (2, 1), (0, 0), (2, 2), (2, 1), (0, 0), (1, 2), (1, 2)]	0	0	0	0	NA	NA	NA	NA	0	1	1	282	NA	NA	NA	NA	NA	NA	NA	NA	NA	NA	NA	NA	NA	NA	NA	NA	NA	NA	NA	NA	NA	NA	NA	NA	NA	NA	NA	NA	NA	NA	NA	NA	NA	412.3545379997231	['left', 'right', 'left', 'left', 'left', 'left']	[6.939146399963647, 8.625891199801117, 10.622122599743307, 12.623048499692231, 14.93532589962706, 16.65445189969614]	NA	NA	NA	NA	NA	NA	NA	NA	NA	NA	NA	NA	NA	NA	NA	NA	NA	NA	NA	NA	eaj	001	2026-03-03_16h44.19.265	SS	2023.1.0	59.91180975828166	NA
[(2, 2), (0, 0), (1, 1), (0, 2), (0, 0), (2, 1), (2, 1), (0, 0), (2, 1)]	0	0	0	0	NA	NA	NA	NA	0	2	2	155	NA	NA	NA	NA	NA	NA	NA	NA	NA	NA	NA	NA	NA	NA	NA	NA	NA	NA	NA	NA	NA	NA	NA	NA	NA	NA	NA	NA	NA	NA	NA	NA	NA	431.3546438999474	['left', 'left', 'left', 'left', 'left', 'left']	[6.705323799978942, 8.531640000175685, 10.55816589994356, 12.438885299954563, 14.545443099923432, 16.551357199903578]	NA	NA	NA	NA	NA	NA	NA	NA	NA	NA	NA	NA	NA	NA	NA	NA	NA	NA	NA	NA	eaj	001	2026-03-03_16h44.19.265	SS	2023.1.0	59.91180975828166	NA
[(1, 2), (0, 1), (0, 0), (2, 0), (1, 2), (1, 2), (2, 2), (0, 1), (0, 1), (1, 2)]	0	0	0	0	NA	NA	NA	NA	NA	NA	NA	NA	0	0	0	568	NA	NA	NA	NA	NA	NA	NA	NA	NA	NA	NA	NA	NA	NA	NA	NA	NA	NA	NA	NA	NA	NA	NA	NA	NA	NA	NA	NA	NA	NA	NA	NA	450.2869241996668	454.3652058998123	['right', 'right', 'left', 'left', 'left', 'left', 'right']	[8.726645499933511, 10.359914999920875, 12.599020199850202, 14.663459399715066, 16.428479100111872, 18.388126699719578, 18.873080600053072]	NA	NA	NA	NA	NA	NA	NA	NA	NA	NA	NA	NA	NA	NA	NA	NA	eaj	001	2026-03-03_16h44.19.265	SS	2023.1.0	59.91180975828166	NA
[(2, 0), (0, 0), (1, 2), (1, 0), (0, 1), (2, 1), (2, 1), (1, 0), (0, 1), (2, 2)]	0	0	0	0	NA	NA	NA	NA	NA	NA	NA	NA	0	1	1	557	NA	NA	NA	NA	NA	NA	NA	NA	NA	NA	NA	NA	NA	NA	NA	NA	NA	NA	NA	NA	NA	NA	NA	NA	NA	NA	NA	NA	NA	NA	NA	NA	NA	475.34554609982297	['left', 'left', 'left', 'left', 'left', 'left']	[9.242328899912536, 10.815873099956661, 12.532039199955761, 14.520533800125122, 16.434815399814397, 18.969039299990982]	NA	NA	NA	NA	NA	NA	NA	NA	NA	NA	NA	NA	NA	NA	NA	NA	eaj	001	2026-03-03_16h44.19.265	SS	2023.1.0	59.91180975828166	NA
[(0, 1), (1, 2), (0, 0), (2, 1), (2, 0), (1, 2), (0, 1), (2, 1), (0, 1), (1, 1)]	0	0	0	0	NA	NA	NA	NA	NA	NA	NA	NA	0	2	2	637	NA	NA	NA	NA	NA	NA	NA	NA	NA	NA	NA	NA	NA	NA	NA	NA	NA	NA	NA	NA	NA	NA	NA	NA	NA	NA	NA	NA	NA	NA	NA	NA	NA	496.37609209958464	['left', 'left', 'left', 'right', 'left', 'right', 'left']	[8.75322060007602, 10.508420099969953, 12.307009600102901, 12.741972600109875, 14.8374382997863, 16.703406000044197, 18.663727399893105]	NA	NA	NA	NA	NA	NA	NA	NA	NA	NA	NA	NA	NA	NA	NA	NA	eaj	001	2026-03-03_16h44.19.265	SS	2023.1.0	59.91180975828166	NA
NA	0	0	0	0	NA	NA	NA	NA	NA	NA	NA	NA	NA	NA	NA	NA	NA	NA	NA	NA	NA	NA	NA	NA	NA	NA	NA	NA	NA	NA	NA	NA	NA	NA	NA	NA	NA	NA	NA	NA	NA	NA	NA	NA	NA	NA	NA	NA	NA	NA	NA	NA	516.3068991997279	y	49.36901640007272	NA	NA	NA	NA	NA	NA	NA	NA	NA	NA	NA	NA	NA	eaj	001	2026-03-03_16h44.19.265	SS	2023.1.0	59.91180975828166	NA
[(1, 2), (0, 0), (1, 2), (1, 2), (2, 0), (2, 1), (2, 0), (1, 2)]	NA	NA	NA	NA	NA	NA	NA	NA	NA	NA	NA	NA	NA	NA	NA	NA	0	0	0	0	0	0	0	321	NA	NA	NA	NA	NA	NA	NA	NA	NA	NA	NA	NA	NA	NA	NA	NA	585.6805099998601	NA	NA	NA	NA	NA	NA	NA	NA	NA	NA	NA	NA	NA	NA	565.7499697995372	588.7800140995532	589.7631585998461	['right', 'right', 'left', 'left', 'left', 'right']	[4.682652299758047, 6.563972499687225, 8.569919299799949, 10.48598079988733, 12.487506999634206, 14.517470799852163]	NA	NA	NA	NA	NA	NA	NA	NA	eaj	001	2026-03-03_16h44.19.265	SS	2023.1.0	59.91180975828166	NA
[(0, 2), (2, 0), (0, 2), (2, 0), (1, 0), (0, 1), (0, 2), (2, 0)]	NA	NA	NA	NA	NA	NA	NA	NA	NA	NA	NA	NA	NA	NA	NA	NA	0	0	0	0	0	1	1	382	NA	NA	NA	NA	NA	NA	NA	NA	NA	NA	NA	NA	NA	NA	NA	NA	NA	NA	NA	NA	NA	NA	NA	NA	NA	NA	NA	NA	NA	NA	NA	NA	NA	606.7478118999861	['right', 'left', 'left', 'left', 'right', 'left']	[4.5277063003741205, 6.556679600384086, 8.612957500386983, 10.537953400053084, 12.512520200107247, 14.547702400013804]	NA	NA	NA	NA	NA	NA	NA	NA	eaj	001	2026-03-03_16h44.19.265	SS	2023.1.0	59.91180975828166	NA
[(2, 2), (2, 1), (0, 1), (0, 1), (0, 1), (0, 1), (1, 1), (2, 0)]	NA	NA	NA	NA	NA	NA	NA	NA	NA	NA	NA	NA	NA	NA	NA	NA	0	0	0	0	0	2	2	78	NA	NA	NA	NA	NA	NA	NA	NA	NA	NA	NA	NA	NA	NA	NA	NA	NA	NA	NA	NA	NA	NA	NA	NA	NA	NA	NA	NA	NA	NA	NA	NA	NA	623.7612169999629	['left', 'left', 'left', 'left', 'left', 'left']	[4.8717686999589205, 6.479443900287151, 8.37258299998939, 10.393725899979472, 12.643798999954015, 14.483088900335133]	NA	NA	NA	NA	NA	NA	NA	NA	eaj	001	2026-03-03_16h44.19.265	SS	2023.1.0	59.91180975828166	NA
[(2, 2), (1, 2), (2, 2), (2, 0), (1, 1), (2, 0), (0, 0), (1, 2)]	NA	NA	NA	NA	NA	NA	NA	NA	NA	NA	NA	NA	NA	NA	NA	NA	0	0	0	0	0	3	3	86	NA	NA	NA	NA	NA	NA	NA	NA	NA	NA	NA	NA	NA	NA	NA	NA	NA	NA	NA	NA	NA	NA	NA	NA	NA	NA	NA	NA	NA	NA	NA	NA	NA	640.7224113997072	['right', 'left', 'left', 'left', 'left', 'left']	[4.80857599992305, 6.457715599797666, 8.686034299898893, 10.797468199860305, 12.831134399864823, 14.618276400025934]	NA	NA	NA	NA	NA	NA	NA	NA	eaj	001	2026-03-03_16h44.19.265	SS	2023.1.0	59.91180975828166	NA
[(0, 2), (1, 2), (0, 2), (1, 0), (2, 1), (1, 2), (2, 1), (1, 0)]	NA	NA	NA	NA	NA	NA	NA	NA	NA	NA	NA	NA	NA	NA	NA	NA	0	0	0	0	0	4	4	693	NA	NA	NA	NA	NA	NA	NA	NA	NA	NA	NA	NA	NA	NA	NA	NA	NA	NA	NA	NA	NA	NA	NA	NA	NA	NA	NA	NA	NA	NA	NA	NA	NA	657.753765899688	['right', 'left', 'left', 'left', 'left', 'left']	[4.58511250000447, 6.447923899628222, 8.701523799914867, 10.518205899745226, 12.469280099961907, 14.482435899786651]	NA	NA	NA	NA	NA	NA	NA	NA	eaj	001	2026-03-03_16h44.19.265	SS	2023.1.0	59.91180975828166	NA
[(0, 0), (0, 1), (0, 0), (0, 1), (0, 2), (0, 0), (1, 2), (1, 1)]	NA	NA	NA	NA	NA	NA	NA	NA	NA	NA	NA	NA	NA	NA	NA	NA	0	0	0	0	0	5	5	691	NA	NA	NA	NA	NA	NA	NA	NA	NA	NA	NA	NA	NA	NA	NA	NA	NA	NA	NA	NA	NA	NA	NA	NA	NA	NA	NA	NA	NA	NA	NA	NA	NA	674.722215199843	['right', 'left', 'left', 'right', 'left', 'left']	[4.855647000018507, 6.581697499845177, 8.608240499626845, 10.687963999807835, 12.648253899998963, 14.579507399816066]	NA	NA	NA	NA	NA	NA	NA	NA	eaj	001	2026-03-03_16h44.19.265	SS	2023.1.0	59.91180975828166	NA
NA	NA	NA	NA	NA	NA	NA	NA	NA	NA	NA	NA	NA	NA	NA	NA	NA	0	0	0	0	NA	NA	NA	NA	NA	NA	NA	NA	NA	NA	NA	NA	NA	NA	NA	NA	NA	NA	NA	NA	NA	NA	NA	NA	NA	NA	NA	NA	NA	NA	NA	NA	NA	NA	NA	NA	NA	NA	NA	NA	NA	NA	NA	NA	NA	NA	NA	NA	eaj	001	2026-03-03_16h44.19.265	SS	2023.1.0	59.91180975828166	NA
[(1, 1), (0, 2), (1, 1), (0, 0), (0, 2), (0, 0), (1, 0), (2, 1)]	NA	NA	NA	NA	NA	NA	NA	NA	NA	NA	NA	NA	NA	NA	NA	NA	1	0	1	0	0	0	0	184	NA	NA	NA	NA	NA	NA	NA	NA	NA	NA	NA	NA	NA	NA	NA	NA	NA	NA	NA	NA	NA	NA	NA	NA	NA	NA	NA	NA	NA	NA	NA	NA	NA	693.6368759996258	['right', 'left', 'left', 'left', 'left', 'left']	[4.9221958997659385, 6.849338799715042, 8.969772999640554, 10.638529799878597, 12.574731099884957, 14.526315100025386]	NA	NA	NA	NA	NA	NA	NA	NA	eaj	001	2026-03-03_16h44.19.265	SS	2023.1.0	59.91180975828166	NA
[(2, 0), (1, 2), (1, 0), (0, 1), (1, 0), (2, 2), (1, 1), (2, 2)]	NA	NA	NA	NA	NA	NA	NA	NA	NA	NA	NA	NA	NA	NA	NA	NA	1	0	1	0	0	1	1	401	NA	NA	NA	NA	NA	NA	NA	NA	NA	NA	NA	NA	NA	NA	NA	NA	NA	NA	NA	NA	NA	NA	NA	NA	NA	NA	NA	NA	NA	NA	NA	NA	NA	710.6486336998641	['left', 'left', 'left', 'left', 'left', 'left']	[5.047604700084776, 6.490895099937916, 8.394209600053728, 10.601933300029486, 12.468297900166363, 14.535744599997997]	NA	NA	NA	NA	NA	NA	NA	NA	eaj	001	2026-03-03_16h44.19.265	SS	2023.1.0	59.91180975828166	NA
[(0, 1), (2, 2), (1, 1), (1, 2), (1, 0), (2, 1), (1, 0), (2, 1)]	NA	NA	NA	NA	NA	NA	NA	NA	NA	NA	NA	NA	NA	NA	NA	NA	1	0	1	0	0	2	2	589	NA	NA	NA	NA	NA	NA	NA	NA	NA	NA	NA	NA	NA	NA	NA	NA	NA	NA	NA	NA	NA	NA	NA	NA	NA	NA	NA	NA	NA	NA	NA	NA	NA	727.6441095997579	['left', 'left', 'left', 'left', 'left', 'left']	[4.57818750012666, 6.357831900008023, 8.317542599979788, 10.487657099962234, 12.34185570012778, 14.42476570000872]	NA	NA	NA	NA	NA	NA	NA	NA	eaj	001	2026-03-03_16h44.19.265	SS	2023.1.0	59.91180975828166	NA
[(1, 0), (1, 1), (0, 0), (1, 0), (0, 1), (1, 0), (0, 1), (2, 2)]	NA	NA	NA	NA	NA	NA	NA	NA	NA	NA	NA	NA	NA	NA	NA	NA	1	0	1	0	0	3	3	297	NA	NA	NA	NA	NA	NA	NA	NA	NA	NA	NA	NA	NA	NA	NA	NA	NA	NA	NA	NA	NA	NA	NA	NA	NA	NA	NA	NA	NA	NA	NA	NA	NA	744.6417266996577	['left', 'right', 'left', 'right', 'left', 'left']	[4.784193999599665, 6.668449399992824, 8.519924699794501, 10.596591499634087, 12.570317199919373, 14.573969800025225]	NA	NA	NA	NA	NA	NA	NA	NA	eaj	001	2026-03-03_16h44.19.265	SS	2023.1.0	59.91180975828166	NA
[(2, 0), (0, 0), (2, 1), (0, 1), (0, 0), (0, 1), (1, 1), (0, 1)]	NA	NA	NA	NA	NA	NA	NA	NA	NA	NA	NA	NA	NA	NA	NA	NA	1	0	1	0	0	4	4	609	NA	NA	NA	NA	NA	NA	NA	NA	NA	NA	NA	NA	NA	NA	NA	NA	NA	NA	NA	NA	NA	NA	NA	NA	NA	NA	NA	NA	NA	NA	NA	NA	NA	761.6560318996198	['left', 'left', 'left', 'left', 'left', 'left']	[4.986302400007844, 6.731872800271958, 8.46790730021894, 10.551174700260162, 12.446586099918932, 14.598993699997663]	NA	NA	NA	NA	NA	NA	NA	NA	eaj	001	2026-03-03_16h44.19.265	SS	2023.1.0	59.91180975828166	NA
[(0, 0), (0, 1), (1, 1), (2, 0), (2, 2), (2, 0), (0, 1), (2, 0)]	NA	NA	NA	NA	NA	NA	NA	NA	NA	NA	NA	NA	NA	NA	NA	NA	1	0	1	0	0	5	5	624	NA	NA	NA	NA	NA	NA	NA	NA	NA	NA	NA	NA	NA	NA	NA	NA	NA	NA	NA	NA	NA	NA	NA	NA	NA	NA	NA	NA	NA	NA	NA	NA	NA	778.6395339998417	['left', 'left', 'left', 'left', 'left']	[6.641322299838066, 8.549583999905735, 10.66005830001086, 12.478584200143814, 14.44646569993347]	NA	NA	NA	NA	NA	NA	NA	NA	eaj	001	2026-03-03_16h44.19.265	SS	2023.1.0	59.91180975828166	NA
NA	NA	NA	NA	NA	NA	NA	NA	NA	NA	NA	NA	NA	NA	NA	NA	NA	1	0	1	0	NA	NA	NA	NA	NA	NA	NA	NA	NA	NA	NA	NA	NA	NA	NA	NA	NA	NA	NA	NA	NA	NA	NA	NA	NA	NA	NA	NA	NA	NA	NA	NA	NA	NA	NA	NA	NA	NA	NA	NA	NA	NA	NA	NA	NA	NA	NA	NA	eaj	001	2026-03-03_16h44.19.265	SS	2023.1.0	59.91180975828166	NA
[(1, 0), (1, 1), (2, 0), (0, 0), (1, 2), (2, 1), (0, 0), (2, 1), (2, 1)]	NA	NA	NA	NA	NA	NA	NA	NA	NA	NA	NA	NA	NA	NA	NA	NA	NA	NA	NA	NA	NA	NA	NA	NA	0	0	0	0	0	0	0	127	NA	NA	NA	NA	NA	NA	NA	NA	NA	NA	NA	NA	796.1513099996373	NA	NA	NA	NA	NA	NA	NA	NA	NA	NA	NA	NA	NA	NA	NA	799.2345005995594	800.2201891997829	['left', 'left', 'left', 'left', 'left', 'left']	[6.586066100280732, 8.53940000012517, 10.62692670011893, 12.548632600344718, 14.571272700093687, 16.558192300144583]	NA	NA	NA	NA	eaj	001	2026-03-03_16h44.19.265	SS	2023.1.0	59.91180975828166	NA
[(1, 2), (2, 0), (2, 2), (1, 2), (0, 2), (2, 0), (2, 0), (1, 1), (2, 0)]	NA	NA	NA	NA	NA	NA	NA	NA	NA	NA	NA	NA	NA	NA	NA	NA	NA	NA	NA	NA	NA	NA	NA	NA	0	0	0	0	0	1	1	454	NA	NA	NA	NA	NA	NA	NA	NA	NA	NA	NA	NA	NA	NA	NA	NA	NA	NA	NA	NA	NA	NA	NA	NA	NA	NA	NA	NA	NA	819.2313418998383	['right', 'left', 'left', 'left', 'left', 'left']	[6.47753950022161, 8.567766800057143, 10.9689589003101, 12.498708600178361, 14.584876799955964, 16.4945896002464]	NA	NA	NA	NA	eaj	001	2026-03-03_16h44.19.265	SS	2023.1.0	59.91180975828166	NA
[(0, 0), (2, 1), (1, 1), (0, 2), (2, 2), (1, 1), (2, 2), (2, 1), (1, 1)]	NA	NA	NA	NA	NA	NA	NA	NA	NA	NA	NA	NA	NA	NA	NA	NA	NA	NA	NA	NA	NA	NA	NA	NA	0	0	0	0	0	2	2	151	NA	NA	NA	NA	NA	NA	NA	NA	NA	NA	NA	NA	NA	NA	NA	NA	NA	NA	NA	NA	NA	NA	NA	NA	NA	NA	NA	NA	NA	838.2156050996855	['left', 'left', 'left', 'left', 'left', 'left']	[6.75946980016306, 8.654734199866652, 10.613142100162804, 12.47776969987899, 14.587970700114965, 16.629517199937254]	NA	NA	NA	NA	eaj	001	2026-03-03_16h44.19.265	SS	2023.1.0	59.91180975828166	NA
[(1, 1), (1, 0), (2, 2), (0, 1), (2, 2), (1, 0), (2, 0), (2, 2), (1, 0)]	NA	NA	NA	NA	NA	NA	NA	NA	NA	NA	NA	NA	NA	NA	NA	NA	NA	NA	NA	NA	NA	NA	NA	NA	0	0	0	0	0	3	3	410	NA	NA	NA	NA	NA	NA	NA	NA	NA	NA	NA	NA	NA	NA	NA	NA	NA	NA	NA	NA	NA	NA	NA	NA	NA	NA	NA	NA	NA	857.2290450995788	['left', 'left', 'left', 'left', 'left', 'left']	[6.950532199814916, 8.735727900173515, 10.528798699844629, 12.449241499882191, 14.432604699861258, 16.440695700235665]	NA	NA	NA	NA	eaj	001	2026-03-03_16h44.19.265	SS	2023.1.0	59.91180975828166	NA
[(0, 2), (0, 1), (1, 1), (1, 2), (0, 1), (1, 1), (1, 1), (1, 1), (1, 2)]	NA	NA	NA	NA	NA	NA	NA	NA	NA	NA	NA	NA	NA	NA	NA	NA	NA	NA	NA	NA	NA	NA	NA	NA	0	0	0	0	0	4	4	574	NA	NA	NA	NA	NA	NA	NA	NA	NA	NA	NA	NA	NA	NA	NA	NA	NA	NA	NA	NA	NA	NA	NA	NA	NA	NA	NA	NA	NA	876.2234925995581	['left', 'left', 'left', 'left', 'left', 'left']	[6.444431699812412, 8.43986489996314, 10.435147699899971, 12.41169389989227, 14.33514089975506, 16.697510099969804]	NA	NA	NA	NA	eaj	001	2026-03-03_16h44.19.265	SS	2023.1.0	59.91180975828166	NA
[(1, 2), (0, 1), (2, 2), (0, 0), (0, 2), (2, 2), (2, 1), (2, 1), (2, 2)]	NA	NA	NA	NA	NA	NA	NA	NA	NA	NA	NA	NA	NA	NA	NA	NA	NA	NA	NA	NA	NA	NA	NA	NA	0	0	0	0	0	5	5	170	NA	NA	NA	NA	NA	NA	NA	NA	NA	NA	NA	NA	NA	NA	NA	NA	NA	NA	NA	NA	NA	NA	NA	NA	NA	NA	NA	NA	NA	895.2220638999715	['left', 'left', 'left', 'left', 'left', 'left']	[6.491183999925852, 8.690799799747765, 10.535821999888867, 12.691170800011605, 14.639292699750513, 16.501717699691653]	NA	NA	NA	NA	eaj	001	2026-03-03_16h44.19.265	SS	2023.1.0	59.91180975828166	NA
NA	NA	NA	NA	NA	NA	NA	NA	NA	NA	NA	NA	NA	NA	NA	NA	NA	NA	NA	NA	NA	NA	NA	NA	NA	0	0	0	0	NA	NA	NA	NA	NA	NA	NA	NA	NA	NA	NA	NA	NA	NA	NA	NA	NA	NA	NA	NA	NA	NA	NA	NA	NA	NA	NA	NA	NA	NA	NA	NA	NA	NA	NA	NA	NA	NA	NA	NA	eaj	001	2026-03-03_16h44.19.265	SS	2023.1.0	59.91180975828166	NA
[(2, 1), (0, 1), (1, 1), (0, 2), (2, 0), (1, 1), (0, 2), (1, 1), (2, 2)]	NA	NA	NA	NA	NA	NA	NA	NA	NA	NA	NA	NA	NA	NA	NA	NA	NA	NA	NA	NA	NA	NA	NA	NA	1	0	1	0	0	0	0	416	NA	NA	NA	NA	NA	NA	NA	NA	NA	NA	NA	NA	NA	NA	NA	NA	NA	NA	NA	NA	NA	NA	NA	NA	NA	NA	NA	NA	NA	915.622522899881	['left', 'left', 'left', 'left', 'left', 'left']	[6.463975400198251, 8.464900600258261, 10.514077700208873, 12.475266400258988, 14.636517799925059, 16.55117620015517]	NA	NA	NA	NA	eaj	001	2026-03-03_16h44.19.265	SS	2023.1.0	59.91180975828166	NA
[(2, 2), (1, 2), (2, 2), (1, 1), (1, 2), (2, 1), (0, 1), (2, 2), (2, 1)]	NA	NA	NA	NA	NA	NA	NA	NA	NA	NA	NA	NA	NA	NA	NA	NA	NA	NA	NA	NA	NA	NA	NA	NA	1	0	1	0	0	1	1	681	NA	NA	NA	NA	NA	NA	NA	NA	NA	NA	NA	NA	NA	NA	NA	NA	NA	NA	NA	NA	NA	NA	NA	NA	NA	NA	NA	NA	NA	934.6322724996136	['left', 'left', 'left', 'left', 'right', 'left']	[7.330442599952221, 8.790606600232422, 10.558614100329578, 12.519887400325388, 14.544869100209326, 16.5913811000064]	NA	NA	NA	NA	eaj	001	2026-03-03_16h44.19.265	SS	2023.1.0	59.91180975828166	NA
[(2, 0), (1, 2), (2, 0), (1, 0), (1, 2), (1, 1), (2, 2), (1, 0), (1, 1)]	NA	NA	NA	NA	NA	NA	NA	NA	NA	NA	NA	NA	NA	NA	NA	NA	NA	NA	NA	NA	NA	NA	NA	NA	1	0	1	0	0	2	2	586	NA	NA	NA	NA	NA	NA	NA	NA	NA	NA	NA	NA	NA	NA	NA	NA	NA	NA	NA	NA	NA	NA	NA	NA	NA	NA	NA	NA	NA	953.6292472998612	['left', 'left', 'left', 'left', 'left', 'left']	[7.013032299932092, 8.772530499845743, 10.478752600029111, 12.565082799643278, 14.42881349986419, 16.442776300013065]	NA	NA	NA	NA	eaj	001	2026-03-03_16h44.19.265	SS	2023.1.0	59.91180975828166	NA
[(2, 0), (1, 1), (2, 1), (0, 0), (1, 2), (1, 2), (0, 0), (1, 2), (2, 0)]	NA	NA	NA	NA	NA	NA	NA	NA	NA	NA	NA	NA	NA	NA	NA	NA	NA	NA	NA	NA	NA	NA	NA	NA	1	0	1	0	0	3	3	220	NA	NA	NA	NA	NA	NA	NA	NA	NA	NA	NA	NA	NA	NA	NA	NA	NA	NA	NA	NA	NA	NA	NA	NA	NA	NA	NA	NA	NA	972.6136169997044	['left', 'left', 'left', 'left', 'left', 'right']	[6.674123399890959, 8.35628949990496, 10.346850699745119, 12.238207600079477, 14.35963309975341, 16.525064500048757]	NA	NA	NA	NA	eaj	001	2026-03-03_16h44.19.265	SS	2023.1.0	59.91180975828166	NA
[(2, 2), (2, 0), (2, 1), (2, 2), (2, 0), (1, 1), (0, 1), (1, 1), (0, 0)]	NA	NA	NA	NA	NA	NA	NA	NA	NA	NA	NA	NA	NA	NA	NA	NA	NA	NA	NA	NA	NA	NA	NA	NA	1	0	1	0	0	4	4	100	NA	NA	NA	NA	NA	NA	NA	NA	NA	NA	NA	NA	NA	NA	NA	NA	NA	NA	NA	NA	NA	NA	NA	NA	NA	NA	NA	NA	NA	991.6118285995908	['left', 'left', 'left', 'left', 'left']	[9.652724799700081, 10.826891599688679, 12.488150199875236, 14.527072899974883, 16.5179065996781]	NA	NA	NA	NA	eaj	001	2026-03-03_16h44.19.265	SS	2023.1.0	59.91180975828166	NA
[(1, 1), (2, 0), (0, 1), (1, 1), (0, 0), (1, 2), (1, 1), (0, 2), (1, 1)]	NA	NA	NA	NA	NA	NA	NA	NA	NA	NA	NA	NA	NA	NA	NA	NA	NA	NA	NA	NA	NA	NA	NA	NA	1	0	1	0	0	5	5	225	NA	NA	NA	NA	NA	NA	NA	NA	NA	NA	NA	NA	NA	NA	NA	NA	NA	NA	NA	NA	NA	NA	NA	NA	NA	NA	NA	NA	NA	1010.6214932999574	['right', 'left', 'left', 'right', 'left', 'right']	[6.781536400318146, 8.817792900372297, 10.43290330003947, 12.552094799932092, 14.689179500099272, 16.682774800341576]	NA	NA	NA	NA	eaj	001	2026-03-03_16h44.19.265	SS	2023.1.0	59.91180975828166	NA
NA	NA	NA	NA	NA	NA	NA	NA	NA	NA	NA	NA	NA	NA	NA	NA	NA	NA	NA	NA	NA	NA	NA	NA	NA	1	0	1	0	NA	NA	NA	NA	NA	NA	NA	NA	NA	NA	NA	NA	NA	NA	NA	NA	NA	NA	NA	NA	NA	NA	NA	NA	NA	NA	NA	NA	NA	NA	NA	NA	NA	NA	NA	NA	NA	NA	NA	NA	eaj	001	2026-03-03_16h44.19.265	SS	2023.1.0	59.91180975828166	NA
[(1, 1), (2, 1), (0, 0), (0, 0), (1, 2), (0, 1), (0, 0), (0, 0), (2, 2), (1, 1)]	NA	NA	NA	NA	NA	NA	NA	NA	NA	NA	NA	NA	NA	NA	NA	NA	NA	NA	NA	NA	NA	NA	NA	NA	NA	NA	NA	NA	NA	NA	NA	NA	0	0	0	0	0	0	0	218	NA	NA	NA	NA	NA	NA	NA	NA	1030.0689101996832	NA	NA	NA	NA	NA	NA	NA	NA	NA	NA	NA	NA	NA	NA	NA	1033.154815599788	1034.1514880997129	['left', 'left', 'left', 'left', 'left', 'right']	[8.796494500245899, 10.708508899901062, 12.557823699899018, 14.430584500078112, 16.9843497001566, 18.820462400093675]	eaj	001	2026-03-03_16h44.19.265	SS	2023.1.0	59.91180975828166	NA
[(1, 1), (2, 1), (0, 2), (0, 0), (1, 1), (0, 1), (1, 1), (0, 1), (2, 0), (0, 1)]	NA	NA	NA	NA	NA	NA	NA	NA	NA	NA	NA	NA	NA	NA	NA	NA	NA	NA	NA	NA	NA	NA	NA	NA	NA	NA	NA	NA	NA	NA	NA	NA	0	0	0	0	0	1	1	194	NA	NA	NA	NA	NA	NA	NA	NA	NA	NA	NA	NA	NA	NA	NA	NA	NA	NA	NA	NA	NA	NA	NA	NA	NA	1055.152336599771	['right', 'left', 'right', 'left', 'left', 'left']	[8.598737599793822, 10.582091699820012, 12.623435599729419, 14.631658599711955, 16.64997879974544, 18.735909699928015]	eaj	001	2026-03-03_16h44.19.265	SS	2023.1.0	59.91180975828166	NA
[(1, 1), (0, 2), (1, 2), (2, 0), (1, 1), (2, 1), (1, 2), (0, 0), (0, 1), (0, 1)]	NA	NA	NA	NA	NA	NA	NA	NA	NA	NA	NA	NA	NA	NA	NA	NA	NA	NA	NA	NA	NA	NA	NA	NA	NA	NA	NA	NA	NA	NA	NA	NA	0	0	0	0	0	2	2	152	NA	NA	NA	NA	NA	NA	NA	NA	NA	NA	NA	NA	NA	NA	NA	NA	NA	NA	NA	NA	NA	NA	NA	NA	NA	1076.147445499897	['right', 'left', 'left', 'left', 'left', 'left']	[9.325668199919164, 10.621734499931335, 12.77735979994759, 14.622697900049388, 16.42088090023026, 18.472430999856442]	eaj	001	2026-03-03_16h44.19.265	SS	2023.1.0	59.91180975828166	NA
[(0, 0), (1, 0), (2, 1), (0, 2), (0, 2), (0, 0), (2, 0), (2, 2), (0, 2), (0, 0)]	NA	NA	NA	NA	NA	NA	NA	NA	NA	NA	NA	NA	NA	NA	NA	NA	NA	NA	NA	NA	NA	NA	NA	NA	NA	NA	NA	NA	NA	NA	NA	NA	0	0	0	0	0	3	3	108	NA	NA	NA	NA	NA	NA	NA	NA	NA	NA	NA	NA	NA	NA	NA	NA	NA	NA	NA	NA	NA	NA	NA	NA	NA	1097.142646799795	['left', 'right', 'left', 'left', 'left', 'right']	[8.583240500185639, 10.551285200286657, 12.571059500332922, 14.683307200204581, 16.55829680012539, 18.55547589994967]	eaj	001	2026-03-03_16h44.19.265	SS	2023.1.0	59.91180975828166	NA
[(1, 0), (0, 0), (2, 1), (1, 2), (2, 1), (0, 0), (0, 1), (2, 0), (2, 1), (2, 1)]	NA	NA	NA	NA	NA	NA	NA	NA	NA	NA	NA	NA	NA	NA	NA	NA	NA	NA	NA	NA	NA	NA	NA	NA	NA	NA	NA	NA	NA	NA	NA	NA	0	0	0	0	0	4	4	454	NA	NA	NA	NA	NA	NA	NA	NA	NA	NA	NA	NA	NA	NA	NA	NA	NA	NA	NA	NA	NA	NA	NA	NA	NA	1118.1564638996497	['left', 'left', 'left', 'left', 'left', 'left']	[8.803872500080615, 10.606783899944276, 12.54715729970485, 14.517293099779636, 16.54582819994539, 18.51305089984089]	eaj	001	2026-03-03_16h44.19.265	SS	2023.1.0	59.91180975828166	NA
[(1, 1), (2, 1), (1, 2), (1, 1), (2, 2), (0, 0), (0, 0), (1, 1), (2, 2), (0, 0)]	NA	NA	NA	NA	NA	NA	NA	NA	NA	NA	NA	NA	NA	NA	NA	NA	NA	NA	NA	NA	NA	NA	NA	NA	NA	NA	NA	NA	NA	NA	NA	NA	0	0	0	0	0	5	5	438	NA	NA	NA	NA	NA	NA	NA	NA	NA	NA	NA	NA	NA	NA	NA	NA	NA	NA	NA	NA	NA	NA	NA	NA	NA	1139.1368728997186	['left', 'left', 'left', 'right', 'left', 'left']	[9.222695300355554, 10.792684500105679, 12.516000300180167, 14.606237000320107, 16.691634400282055, 18.64060980034992]	eaj	001	2026-03-03_16h44.19.265	SS	2023.1.0	59.91180975828166	NA
NA	NA	NA	NA	NA	NA	NA	NA	NA	NA	NA	NA	NA	NA	NA	NA	NA	NA	NA	NA	NA	NA	NA	NA	NA	NA	NA	NA	NA	NA	NA	NA	NA	0	0	0	0	NA	NA	NA	NA	NA	NA	NA	NA	NA	NA	NA	NA	NA	NA	NA	NA	NA	NA	NA	NA	NA	NA	NA	NA	NA	NA	NA	NA	NA	NA	NA	NA	eaj	001	2026-03-03_16h44.19.265	SS	2023.1.0	59.91180975828166	NA
[(0, 0), (1, 1), (2, 0), (1, 2), (1, 0), (2, 0), (2, 0), (1, 2), (0, 2), (1, 1)]	NA	NA	NA	NA	NA	NA	NA	NA	NA	NA	NA	NA	NA	NA	NA	NA	NA	NA	NA	NA	NA	NA	NA	NA	NA	NA	NA	NA	NA	NA	NA	NA	1	0	1	0	0	0	0	457	NA	NA	NA	NA	NA	NA	NA	NA	NA	NA	NA	NA	NA	NA	NA	NA	NA	NA	NA	NA	NA	NA	NA	NA	NA	1161.3338658995926	['left', 'left', 'left', 'left', 'left', 'left']	[8.809122300241143, 10.545713299885392, 12.359871000051498, 14.302097500301898, 16.359366400167346, 18.315439700149]	eaj	001	2026-03-03_16h44.19.265	SS	2023.1.0	59.91180975828166	NA
[(0, 2), (2, 1), (1, 2), (1, 2), (0, 1), (2, 1), (2, 2), (0, 2), (0, 1), (2, 0)]	NA	NA	NA	NA	NA	NA	NA	NA	NA	NA	NA	NA	NA	NA	NA	NA	NA	NA	NA	NA	NA	NA	NA	NA	NA	NA	NA	NA	NA	NA	NA	NA	1	0	1	0	0	1	1	290	NA	NA	NA	NA	NA	NA	NA	NA	NA	NA	NA	NA	NA	NA	NA	NA	NA	NA	NA	NA	NA	NA	NA	NA	NA	1182.3306283997372	['left', 'left', 'left', 'right', 'left', 'left']	[8.865239600185305, 10.653171100188047, 12.842372000217438, 14.602866600267589, 16.75528910011053, 18.636287400033325]	eaj	001	2026-03-03_16h44.19.265	SS	2023.1.0	59.91180975828166	NA
[(2, 0), (2, 2), (2, 0), (0, 0), (0, 0), (2, 2), (2, 0), (2, 1), (0, 1), (2, 1)]	NA	NA	NA	NA	NA	NA	NA	NA	NA	NA	NA	NA	NA	NA	NA	NA	NA	NA	NA	NA	NA	NA	NA	NA	NA	NA	NA	NA	NA	NA	NA	NA	1	0	1	0	0	2	2	55	NA	NA	NA	NA	NA	NA	NA	NA	NA	NA	NA	NA	NA	NA	NA	NA	NA	NA	NA	NA	NA	NA	NA	NA	NA	1203.3280094997026	['left', 'left', 'right', 'left', 'left', 'left']	[9.019198799971491, 10.504518399946392, 12.622787000145763, 14.654910000041127, 16.57714440021664, 18.490707600023597]	eaj	001	2026-03-03_16h44.19.265	SS	2023.1.0	59.91180975828166	NA
[(1, 2), (0, 0), (0, 0), (2, 0), (1, 2), (0, 0), (1, 1), (2, 2), (1, 1), (0, 2)]	NA	NA	NA	NA	NA	NA	NA	NA	NA	NA	NA	NA	NA	NA	NA	NA	NA	NA	NA	NA	NA	NA	NA	NA	NA	NA	NA	NA	NA	NA	NA	NA	1	0	1	0	0	3	3	400	NA	NA	NA	NA	NA	NA	NA	NA	NA	NA	NA	NA	NA	NA	NA	NA	NA	NA	NA	NA	NA	NA	NA	NA	NA	1224.3255484998226	['right', 'left', 'left', 'left', 'left', 'left']	[8.591695999726653, 10.48586789984256, 12.632016099989414, 14.689130899962038, 16.587285399902612, 18.716883500106633]	eaj	001	2026-03-03_16h44.19.265	SS	2023.1.0	59.91180975828166	NA
[(2, 1), (1, 0), (2, 1), (2, 1), (0, 1), (1, 0), (2, 2), (2, 0), (2, 0), (1, 0)]	NA	NA	NA	NA	NA	NA	NA	NA	NA	NA	NA	NA	NA	NA	NA	NA	NA	NA	NA	NA	NA	NA	NA	NA	NA	NA	NA	NA	NA	NA	NA	NA	1	0	1	0	0	4	4	360	NA	NA	NA	NA	NA	NA	NA	NA	NA	NA	NA	NA	NA	NA	NA	NA	NA	NA	NA	NA	NA	NA	NA	NA	NA	1245.322213999927	['left', 'left', 'left', 'left', 'left', 'left']	[8.947991899680346, 10.667714699637145, 12.603143299929798, 14.520560099743307, 16.41985259996727, 18.522456199862063]	eaj	001	2026-03-03_16h44.19.265	SS	2023.1.0	59.91180975828166	NA
[(2, 1), (0, 0), (1, 0), (1, 2), (2, 1), (0, 0), (0, 0), (0, 2), (1, 1), (1, 2)]	NA	NA	NA	NA	NA	NA	NA	NA	NA	NA	NA	NA	NA	NA	NA	NA	NA	NA	NA	NA	NA	NA	NA	NA	NA	NA	NA	NA	NA	NA	NA	NA	1	0	1	0	0	5	5	519	NA	NA	NA	NA	NA	NA	NA	NA	NA	NA	NA	NA	NA	NA	NA	NA	NA	NA	NA	NA	NA	NA	NA	NA	NA	1266.319235399831	['right', 'left', 'left', 'left', 'left', 'left']	[8.483904300257564, 10.510312400292605, 12.473690800368786, 14.816037600394338, 16.584243200253695, 18.556909900158644]	eaj	001	2026-03-03_16h44.19.265	SS	2023.1.0	59.91180975828166	NA
NA	NA	NA	NA	NA	NA	NA	NA	NA	NA	NA	NA	NA	NA	NA	NA	NA	NA	NA	NA	NA	NA	NA	NA	NA	NA	NA	NA	NA	NA	NA	NA	NA	1	0	1	0	NA	NA	NA	NA	NA	NA	NA	NA	NA	NA	NA	NA	NA	NA	NA	NA	NA	NA	NA	NA	NA	NA	NA	NA	NA	NA	NA	NA	NA	NA	NA	NA	eaj	001	2026-03-03_16h44.19.265	SS	2023.1.0	59.91180975828166	NA
