imagefile	stimfile	corrAns	MRdir	angle	training.thisRepN	training.thisTrialN	training.thisN	training.thisIndex	mentalrot_trials.thisRepN	mentalrot_trials.thisTrialN	mentalrot_trials.thisN	mentalrot_trials.thisIndex	blank.started	mr_answ_2.started	mr_answ_2.keys	mr_answ_2.corr	mr_answ_2.rt	blank.stopped	mr_answ.started	mr_answ.keys	mr_answ.corr	mr_answ.rt	byebye_text.started	byebye_text.stopped	participant	session	date	expName	psychopyVersion	frameRate	...32
mr_images/6_a.png	mr_images/6_a_z_135.png	left	cw	135	0	0	0	153	NA	NA	NA	NA	76.95655140001327	77.4284832002595	left	1	3.864890499971807	NA	NA	NA	NA	NA	NA	NA	eaj	001	2026-03-03_17h51.56.934	MR	2023.1.0	59.85808839477207	NA
mr_images/11_a.png	mr_images/11_b_z_315.png	right	ccw	45	0	1	1	26	NA	NA	NA	NA	81.32254720013589	81.90567910019308	left	0	3.4468445000238717	81.90567910019308	NA	NA	NA	NA	NA	NA	eaj	001	2026-03-03_17h51.56.934	MR	2023.1.0	59.85808839477207	NA
mr_images/12_a.png	mr_images/12_a_z_45.png	left	cw	45	0	2	2	49	NA	NA	NA	NA	85.37201160006225	85.95516310026869	None	0	NA	85.95516310026869	NA	NA	NA	NA	NA	NA	eaj	001	2026-03-03_17h51.56.934	MR	2023.1.0	59.85808839477207	NA
mr_images/3_a.png	mr_images/3_a_z_90.png	left	cw	90	0	3	3	77	NA	NA	NA	NA	90.8878601999022	91.45442289998756	right	0	3.5801872997544706	NA	NA	NA	NA	NA	NA	NA	eaj	001	2026-03-03_17h51.56.934	MR	2023.1.0	59.85808839477207	NA
mr_images/12_b.png	mr_images/12_b_z_45.png	left	cw	45	0	4	4	61	NA	NA	NA	NA	95.05414899997412	95.62157309986652	left	1	4.169707399792969	95.62157309986652	NA	NA	NA	NA	NA	NA	eaj	001	2026-03-03_17h51.56.934	MR	2023.1.0	59.85808839477207	NA
mr_images/7_b.png	mr_images/7_a_z_225.png	right	ccw	135	NA	NA	NA	NA	0	0	0	190	142.56432410003617	NA	NA	NA	NA	NA	143.05447530001402	None	0	NA	NA	NA	eaj	001	2026-03-03_17h51.56.934	MR	2023.1.0	59.85808839477207	NA
mr_images/11_a.png	mr_images/11_a_z_270.png	left	ccw	90	NA	NA	NA	NA	0	1	1	31	147.95076669985428	NA	NA	NA	NA	NA	148.49637150019407	left	1	3.3523734998889267	NA	NA	eaj	001	2026-03-03_17h51.56.934	MR	2023.1.0	59.85808839477207	NA
mr_images/4_b.png	mr_images/4_b_z_135.png	left	cw	135	NA	NA	NA	NA	0	2	2	117	151.87981079984456	NA	NA	NA	NA	152.46302579995245	152.46302579995245	left	1	2.525598200038075	NA	NA	eaj	001	2026-03-03_17h51.56.934	MR	2023.1.0	59.85808839477207	NA
mr_images/5_a.png	mr_images/5_a_z_315.png	left	ccw	45	NA	NA	NA	NA	0	3	3	123	155.01241560000926	NA	NA	NA	NA	155.5819953000173	155.5819953000173	left	1	3.419912099838257	NA	NA	eaj	001	2026-03-03_17h51.56.934	MR	2023.1.0	59.85808839477207	NA
mr_images/3_a.png	mr_images/3_b_z_225.png	right	ccw	135	NA	NA	NA	NA	0	4	4	82	159.03264140011743	NA	NA	NA	NA	159.58299659984186	159.58299659984186	right	1	3.539903699886054	NA	NA	eaj	001	2026-03-03_17h51.56.934	MR	2023.1.0	59.85808839477207	NA
mr_images/12_b.png	mr_images/12_a_z_45.png	right	cw	45	NA	NA	NA	NA	0	5	5	60	163.14878069981933	NA	NA	NA	NA	163.6658931998536	163.6658931998536	left	0	4.2786789000965655	NA	NA	eaj	001	2026-03-03_17h51.56.934	MR	2023.1.0	59.85808839477207	NA
mr_images/12_b.png	mr_images/12_b_z_315.png	left	ccw	45	NA	NA	NA	NA	0	6	6	63	167.9647313999012	NA	NA	NA	NA	168.52932990016416	168.52932990016416	left	1	3.2336019999347627	NA	NA	eaj	001	2026-03-03_17h51.56.934	MR	2023.1.0	59.85808839477207	NA
mr_images/11_b.png	mr_images/11_b_z_270.png	left	ccw	90	NA	NA	NA	NA	0	7	7	43	171.78087420016527	NA	NA	NA	NA	172.34307359997183	172.34307359997183	right	0	1.9898653998970983	NA	NA	eaj	001	2026-03-03_17h51.56.934	MR	2023.1.0	59.85808839477207	NA
mr_images/1_a.png	mr_images/1_a_z_270.png	left	ccw	90	NA	NA	NA	NA	0	8	8	7	174.35974409990013	NA	NA	NA	NA	174.90944059984758	174.90944059984758	left	1	3.9694829997606575	NA	NA	eaj	001	2026-03-03_17h51.56.934	MR	2023.1.0	59.85808839477207	NA
mr_images/9_b.png	mr_images/9_a_z_90.png	right	cw	90	NA	NA	NA	NA	0	9	9	208	178.90884990012273	NA	NA	NA	NA	179.49244150007144	179.49244150007144	left	0	2.9444205998443067	NA	NA	eaj	001	2026-03-03_17h51.56.934	MR	2023.1.0	59.85808839477207	NA
mr_images/11_a.png	mr_images/11_b_z_135.png	right	cw	135	NA	NA	NA	NA	0	10	10	32	182.45846239989623	NA	NA	NA	NA	183.00835959985852	183.00835959985852	right	1	3.514829100109637	NA	NA	eaj	001	2026-03-03_17h51.56.934	MR	2023.1.0	59.85808839477207	NA
mr_images/7_b.png	mr_images/7_b_z_270.png	left	ccw	90	NA	NA	NA	NA	0	11	11	187	186.54137740004808	NA	NA	NA	NA	187.09538770001384	187.09538770001384	left	1	4.457786099985242	NA	NA	eaj	001	2026-03-03_17h51.56.934	MR	2023.1.0	59.85808839477207	NA
mr_images/5_a.png	mr_images/5_a_z_135.png	left	cw	135	NA	NA	NA	NA	0	12	12	129	191.57387250009924	NA	NA	NA	NA	192.1403995999135	192.1403995999135	right	0	3.4653280996717513	NA	NA	eaj	001	2026-03-03_17h51.56.934	MR	2023.1.0	59.85808839477207	NA
mr_images/6_a.png	mr_images/6_b_z_90.png	right	cw	90	NA	NA	NA	NA	0	13	13	148	195.62338230013847	NA	NA	NA	NA	196.1729152002372	196.1729152002372	left	0	4.8121092999354005	NA	NA	eaj	001	2026-03-03_17h51.56.934	MR	2023.1.0	59.85808839477207	NA
mr_images/5_b.png	mr_images/5_a_z_135.png	right	cw	135	NA	NA	NA	NA	0	14	14	140	201.0059126000851	NA	NA	NA	NA	201.55563910026103	201.55563910026103	left	0	4.764345199801028	NA	NA	eaj	001	2026-03-03_17h51.56.934	MR	2023.1.0	59.85808839477207	NA
mr_images/12_a.png	mr_images/12_b_z_225.png	right	ccw	135	NA	NA	NA	NA	0	15	15	58	206.33842309983447	NA	NA	NA	NA	206.9069802998565	206.9069802998565	left	0	3.1671429998241365	NA	NA	eaj	001	2026-03-03_17h51.56.934	MR	2023.1.0	59.85808839477207	NA
mr_images/7_a.png	mr_images/7_b_z_90.png	right	cw	90	NA	NA	NA	NA	0	16	16	172	210.09219990018755	NA	NA	NA	NA	210.6386449998245	210.6386449998245	None	0	NA	NA	NA	eaj	001	2026-03-03_17h51.56.934	MR	2023.1.0	59.85808839477207	NA
mr_images/7_a.png	mr_images/7_b_z_45.png	right	cw	45	NA	NA	NA	NA	0	17	17	168	215.60385299986228	NA	NA	NA	NA	NA	216.1534985001199	right	1	4.655951799824834	NA	NA	eaj	001	2026-03-03_17h51.56.934	MR	2023.1.0	59.85808839477207	NA
mr_images/1_b.png	mr_images/1_b_z_135.png	left	cw	135	NA	NA	NA	NA	0	18	18	21	220.83641469990835	NA	NA	NA	NA	221.40723429992795	221.40723429992795	right	0	3.0685421996749938	NA	NA	eaj	001	2026-03-03_17h51.56.934	MR	2023.1.0	59.85808839477207	NA
mr_images/6_a.png	mr_images/6_a_z_135.png	left	cw	135	NA	NA	NA	NA	0	19	19	153	224.50688620004803	NA	NA	NA	NA	225.03562580002472	225.03562580002472	right	0	4.1875978000462055	NA	NA	eaj	001	2026-03-03_17h51.56.934	MR	2023.1.0	59.85808839477207	NA
mr_images/1_a.png	mr_images/1_b_z_135.png	right	cw	135	NA	NA	NA	NA	0	20	20	8	229.2521116998978	NA	NA	NA	NA	229.7851742999628	229.7851742999628	left	0	2.9836916998028755	NA	NA	eaj	001	2026-03-03_17h51.56.934	MR	2023.1.0	59.85808839477207	NA
mr_images/9_b.png	mr_images/9_a_z_315.png	right	ccw	45	NA	NA	NA	NA	0	21	21	206	232.80161210009828	NA	NA	NA	NA	233.3520392999053	233.3520392999053	left	0	4.093211799860001	NA	NA	eaj	001	2026-03-03_17h51.56.934	MR	2023.1.0	59.85808839477207	NA
mr_images/12_b.png	mr_images/12_a_z_135.png	right	cw	135	NA	NA	NA	NA	0	22	22	68	237.4674647999927	NA	NA	NA	NA	238.01738200010732	238.01738200010732	left	0	2.7952923998236656	NA	NA	eaj	001	2026-03-03_17h51.56.934	MR	2023.1.0	59.85808839477207	NA
mr_images/7_b.png	mr_images/7_b_z_45.png	left	cw	45	NA	NA	NA	NA	0	23	23	181	240.83369799982756	NA	NA	NA	NA	241.35325729986653	241.35325729986653	left	1	3.6549483998678625	NA	NA	eaj	001	2026-03-03_17h51.56.934	MR	2023.1.0	59.85808839477207	NA
mr_images/6_a.png	mr_images/6_a_z_270.png	left	ccw	90	NA	NA	NA	NA	0	24	24	151	245.03734729997817	NA	NA	NA	NA	245.58823250001296	245.58823250001296	right	0	4.897324199788272	NA	NA	eaj	001	2026-03-03_17h51.56.934	MR	2023.1.0	59.85808839477207	NA
mr_images/4_b.png	mr_images/4_b_z_45.png	left	cw	45	NA	NA	NA	NA	0	25	25	109	250.51565260021016	NA	NA	NA	NA	251.06557269999757	251.06557269999757	left	1	2.5911510000005364	NA	NA	eaj	001	2026-03-03_17h51.56.934	MR	2023.1.0	59.85808839477207	NA
mr_images/1_a.png	mr_images/1_b_z_270.png	right	ccw	90	NA	NA	NA	NA	0	26	26	6	253.6820836002007	NA	NA	NA	NA	254.24887729994953	254.24887729994953	right	1	4.227073600050062	NA	NA	eaj	001	2026-03-03_17h51.56.934	MR	2023.1.0	59.85808839477207	NA
mr_images/4_a.png	mr_images/4_b_z_270.png	right	ccw	90	NA	NA	NA	NA	0	27	27	102	258.49790359986946	NA	NA	NA	NA	259.10002820007503	259.10002820007503	left	0	3.2773436000570655	NA	NA	eaj	001	2026-03-03_17h51.56.934	MR	2023.1.0	59.85808839477207	NA
mr_images/12_a.png	mr_images/12_b_z_270.png	right	ccw	90	NA	NA	NA	NA	0	28	28	54	262.4016451998614	NA	NA	NA	NA	262.9639333002269	262.9639333002269	right	1	3.0357896997593343	NA	NA	eaj	001	2026-03-03_17h51.56.934	MR	2023.1.0	59.85808839477207	NA
mr_images/12_b.png	mr_images/12_b_z_90.png	left	cw	90	NA	NA	NA	NA	0	29	29	65	266.0302816000767	NA	NA	NA	NA	266.58614839985967	266.58614839985967	right	0	4.471771099604666	NA	NA	eaj	001	2026-03-03_17h51.56.934	MR	2023.1.0	59.85808839477207	NA
mr_images/11_b.png	mr_images/11_b_z_45.png	left	cw	45	NA	NA	NA	NA	0	30	30	37	271.07941849995404	NA	NA	NA	NA	271.62910269992426	271.62910269992426	right	0	3.0706472997553647	NA	NA	eaj	001	2026-03-03_17h51.56.934	MR	2023.1.0	59.85808839477207	NA
mr_images/5_a.png	mr_images/5_a_z_90.png	left	cw	90	NA	NA	NA	NA	0	31	31	125	274.72910360014066	NA	NA	NA	NA	275.28303880011663	275.28303880011663	right	0	3.5552693996578455	NA	NA	eaj	001	2026-03-03_17h51.56.934	MR	2023.1.0	59.85808839477207	NA
mr_images/6_a.png	mr_images/6_a_z_315.png	left	ccw	45	NA	NA	NA	NA	0	32	32	147	278.86596730025485	NA	NA	NA	NA	279.4282296001911	279.4282296001911	right	0	3.843782300129533	NA	NA	eaj	001	2026-03-03_17h51.56.934	MR	2023.1.0	59.85808839477207	NA
mr_images/9_b.png	mr_images/9_a_z_225.png	right	ccw	135	NA	NA	NA	NA	0	33	33	214	283.2946537998505	NA	NA	NA	NA	283.8490363000892	283.8490363000892	left	0	2.5341882999055088	NA	NA	eaj	001	2026-03-03_17h51.56.934	MR	2023.1.0	59.85808839477207	NA
mr_images/7_a.png	mr_images/7_a_z_225.png	left	ccw	135	NA	NA	NA	NA	0	34	34	179	286.41525680013	NA	NA	NA	NA	286.9441268998198	286.9441268998198	left	1	3.1831029998138547	NA	NA	eaj	001	2026-03-03_17h51.56.934	MR	2023.1.0	59.85808839477207	NA
mr_images/3_b.png	mr_images/3_b_z_315.png	left	ccw	45	NA	NA	NA	NA	0	35	35	87	290.1436514002271	NA	NA	NA	NA	290.71385269984603	290.71385269984603	right	0	3.7300807000137866	NA	NA	eaj	001	2026-03-03_17h51.56.934	MR	2023.1.0	59.85808839477207	NA
mr_images/6_b.png	mr_images/6_b_z_135.png	left	cw	135	NA	NA	NA	NA	0	36	36	165	294.4639498000033	NA	NA	NA	NA	295.0428637000732	295.0428637000732	left	1	3.748037499841302	NA	NA	eaj	001	2026-03-03_17h51.56.934	MR	2023.1.0	59.85808839477207	NA
mr_images/1_a.png	mr_images/1_a_z_45.png	left	cw	45	NA	NA	NA	NA	0	37	37	1	298.80931159993634	NA	NA	NA	NA	299.37600659998134	299.37600659998134	left	1	4.541905999649316	NA	NA	eaj	001	2026-03-03_17h51.56.934	MR	2023.1.0	59.85808839477207	NA
mr_images/1_a.png	mr_images/1_b_z_45.png	right	cw	45	NA	NA	NA	NA	0	38	38	0	303.9419686002657	NA	NA	NA	NA	NA	304.5083368001506	left	0	2.84777669981122	NA	NA	eaj	001	2026-03-03_17h51.56.934	MR	2023.1.0	59.85808839477207	NA
mr_images/1_a.png	mr_images/1_b_z_315.png	right	ccw	45	NA	NA	NA	NA	0	39	39	2	307.3746913000941	NA	NA	NA	NA	307.924273500219	307.924273500219	left	0	2.9716306999325752	NA	NA	eaj	001	2026-03-03_17h51.56.934	MR	2023.1.0	59.85808839477207	NA
mr_images/6_b.png	mr_images/6_b_z_225.png	left	ccw	135	NA	NA	NA	NA	0	40	40	167	310.92399490019307	NA	NA	NA	NA	311.4575276002288	311.4575276002288	right	0	4.095124899875373	NA	NA	eaj	001	2026-03-03_17h51.56.934	MR	2023.1.0	59.85808839477207	NA
mr_images/3_a.png	mr_images/3_a_z_45.png	left	cw	45	NA	NA	NA	NA	0	41	41	73	315.5733627001755	NA	NA	NA	NA	316.1286383001134	316.1286383001134	left	1	3.005603399593383	NA	NA	eaj	001	2026-03-03_17h51.56.934	MR	2023.1.0	59.85808839477207	NA
mr_images/9_a.png	mr_images/9_a_z_270.png	left	ccw	90	NA	NA	NA	NA	0	42	42	199	319.16047949995846	NA	NA	NA	NA	319.74550219997764	319.74550219997764	left	1	4.76167339971289	NA	NA	eaj	001	2026-03-03_17h51.56.934	MR	2023.1.0	59.85808839477207	NA
mr_images/11_b.png	mr_images/11_a_z_135.png	right	cw	135	NA	NA	NA	NA	0	43	43	44	324.5265319002792	NA	NA	NA	NA	325.07450690027326	325.07450690027326	left	0	3.474348899908364	NA	NA	eaj	001	2026-03-03_17h51.56.934	MR	2023.1.0	59.85808839477207	NA
mr_images/9_b.png	mr_images/9_b_z_135.png	left	cw	135	NA	NA	NA	NA	0	44	44	213	328.57574390014634	NA	NA	NA	NA	329.13807049999014	329.13807049999014	left	1	3.276158199645579	NA	NA	eaj	001	2026-03-03_17h51.56.934	MR	2023.1.0	59.85808839477207	NA
mr_images/7_a.png	mr_images/7_a_z_135.png	left	cw	135	NA	NA	NA	NA	0	45	45	177	332.43783099995926	NA	NA	NA	NA	332.9906349000521	332.9906349000521	left	1	3.2861006995663047	NA	NA	eaj	001	2026-03-03_17h51.56.934	MR	2023.1.0	59.85808839477207	NA
mr_images/11_a.png	mr_images/11_a_z_135.png	left	cw	135	NA	NA	NA	NA	0	46	46	33	336.30805160012096	NA	NA	NA	NA	336.8383094002493	336.8383094002493	left	1	1.3764713001437483	NA	NA	eaj	001	2026-03-03_17h51.56.934	MR	2023.1.0	59.85808839477207	NA
mr_images/11_a.png	mr_images/11_b_z_90.png	right	cw	90	NA	NA	NA	NA	0	47	47	28	338.2372333998792	NA	NA	NA	NA	338.8035228000954	338.8035228000954	right	1	4.608402700163424	NA	NA	eaj	001	2026-03-03_17h51.56.934	MR	2023.1.0	59.85808839477207	NA
mr_images/4_a.png	mr_images/4_b_z_225.png	right	ccw	135	NA	NA	NA	NA	0	48	48	106	343.43609829992056	NA	NA	NA	NA	343.9882558998652	343.9882558998652	left	0	2.78665279969573	NA	NA	eaj	001	2026-03-03_17h51.56.934	MR	2023.1.0	59.85808839477207	NA
mr_images/11_a.png	mr_images/11_a_z_90.png	left	cw	90	NA	NA	NA	NA	0	49	49	29	346.7901836000383	NA	NA	NA	NA	347.35224930010736	347.35224930010736	left	1	3.4966135998256505	NA	NA	eaj	001	2026-03-03_17h51.56.934	MR	2023.1.0	59.85808839477207	NA
mr_images/3_b.png	mr_images/3_b_z_90.png	left	cw	90	NA	NA	NA	NA	0	50	50	89	350.8684145999141	NA	NA	NA	NA	351.4181953999214	351.4181953999214	left	1	3.499964199960232	NA	NA	eaj	001	2026-03-03_17h51.56.934	MR	2023.1.0	59.85808839477207	NA
mr_images/6_b.png	mr_images/6_a_z_225.png	right	ccw	135	NA	NA	NA	NA	0	51	51	166	354.93483809987083	NA	NA	NA	NA	355.50134309986606	355.50134309986606	left	0	3.2904578000307083	NA	NA	eaj	001	2026-03-03_17h51.56.934	MR	2023.1.0	59.85808839477207	NA
mr_images/7_b.png	mr_images/7_a_z_270.png	right	ccw	90	NA	NA	NA	NA	0	52	52	186	358.81731350021437	NA	NA	NA	NA	359.38391980016604	359.38391980016604	left	0	3.429017699789256	NA	NA	eaj	001	2026-03-03_17h51.56.934	MR	2023.1.0	59.85808839477207	NA
mr_images/12_a.png	mr_images/12_a_z_315.png	left	ccw	45	NA	NA	NA	NA	0	53	53	51	362.8334260000847	NA	NA	NA	NA	363.3893037000671	363.3893037000671	left	1	2.611429200042039	NA	NA	eaj	001	2026-03-03_17h51.56.934	MR	2023.1.0	59.85808839477207	NA
mr_images/7_a.png	mr_images/7_a_z_270.png	left	ccw	90	NA	NA	NA	NA	0	54	54	175	366.0205633998849	NA	NA	NA	NA	366.54955110000446	366.54955110000446	right	0	4.095944899599999	NA	NA	eaj	001	2026-03-03_17h51.56.934	MR	2023.1.0	59.85808839477207	NA
mr_images/3_b.png	mr_images/3_a_z_270.png	right	ccw	90	NA	NA	NA	NA	0	55	55	90	370.665941900108	NA	NA	NA	NA	371.2322857999243	371.2322857999243	left	0	3.326894000172615	NA	NA	eaj	001	2026-03-03_17h51.56.934	MR	2023.1.0	59.85808839477207	NA
mr_images/11_a.png	mr_images/11_b_z_225.png	right	ccw	135	NA	NA	NA	NA	0	56	56	34	374.5816810000688	NA	NA	NA	NA	375.1316641001031	375.1316641001031	left	0	2.4830697998404503	NA	NA	eaj	001	2026-03-03_17h51.56.934	MR	2023.1.0	59.85808839477207	NA
mr_images/4_a.png	mr_images/4_a_z_45.png	left	cw	45	NA	NA	NA	NA	0	57	57	97	377.63138859998435	NA	NA	NA	NA	378.1866358998232	378.1866358998232	left	1	2.684495199471712	NA	NA	eaj	001	2026-03-03_17h51.56.934	MR	2023.1.0	59.85808839477207	NA
mr_images/3_a.png	mr_images/3_a_z_270.png	left	ccw	90	NA	NA	NA	NA	0	58	58	79	380.9018168998882	NA	NA	NA	NA	381.4305775002576	381.4305775002576	left	1	2.5502670002169907	NA	NA	eaj	001	2026-03-03_17h51.56.934	MR	2023.1.0	59.85808839477207	NA
mr_images/1_b.png	mr_images/1_b_z_45.png	left	cw	45	NA	NA	NA	NA	0	59	59	13	383.9971552002244	NA	NA	NA	NA	384.53755680006	384.53755680006	right	0	2.799544599838555	NA	NA	eaj	001	2026-03-03_17h51.56.934	MR	2023.1.0	59.85808839477207	NA
mr_images/1_a.png	mr_images/1_b_z_90.png	right	cw	90	NA	NA	NA	NA	0	60	60	4	387.36753620021045	NA	NA	NA	NA	387.9299528999254	387.9299528999254	left	0	4.599799699615687	NA	NA	eaj	001	2026-03-03_17h51.56.934	MR	2023.1.0	59.85808839477207	NA
mr_images/12_a.png	mr_images/12_b_z_45.png	right	cw	45	NA	NA	NA	NA	0	61	61	48	392.5625200001523	NA	NA	NA	NA	393.1124787000008	393.1124787000008	left	0	3.137031199876219	NA	NA	eaj	001	2026-03-03_17h51.56.934	MR	2023.1.0	59.85808839477207	NA
mr_images/5_b.png	mr_images/5_b_z_315.png	left	ccw	45	NA	NA	NA	NA	0	62	62	135	396.27890959987417	NA	NA	NA	NA	396.845563699957	396.845563699957	left	1	2.771722400095314	NA	NA	eaj	001	2026-03-03_17h51.56.934	MR	2023.1.0	59.85808839477207	NA
mr_images/7_b.png	mr_images/7_a_z_315.png	right	ccw	45	NA	NA	NA	NA	0	63	63	182	399.6449029999785	NA	NA	NA	NA	400.2115474999882	400.2115474999882	left	0	1.9932563002221289	NA	NA	eaj	001	2026-03-03_17h51.56.934	MR	2023.1.0	59.85808839477207	NA
mr_images/1_b.png	mr_images/1_b_z_225.png	left	ccw	135	NA	NA	NA	NA	0	64	64	23	402.2279639998451	NA	NA	NA	NA	402.7779616001062	402.7779616001062	right	0	2.8838191996328533	NA	NA	eaj	001	2026-03-03_17h51.56.934	MR	2023.1.0	59.85808839477207	NA
mr_images/12_a.png	mr_images/12_a_z_90.png	left	cw	90	NA	NA	NA	NA	0	65	65	53	405.6776775000617	NA	NA	NA	NA	406.2440432999283	406.2440432999283	left	1	4.21897259959951	NA	NA	eaj	001	2026-03-03_17h51.56.934	MR	2023.1.0	59.85808839477207	NA
mr_images/5_a.png	mr_images/5_b_z_45.png	right	cw	45	NA	NA	NA	NA	0	66	66	120	410.4934292002581	NA	NA	NA	NA	411.0433657998219	411.0433657998219	right	1	2.6850713999010623	NA	NA	eaj	001	2026-03-03_17h51.56.934	MR	2023.1.0	59.85808839477207	NA
mr_images/11_a.png	mr_images/11_a_z_225.png	left	ccw	135	NA	NA	NA	NA	0	67	67	35	413.7598871998489	NA	NA	NA	NA	414.3095757002011	414.3095757002011	right	0	3.917257399763912	NA	NA	eaj	001	2026-03-03_17h51.56.934	MR	2023.1.0	59.85808839477207	NA
mr_images/4_b.png	mr_images/4_a_z_270.png	right	ccw	90	NA	NA	NA	NA	0	68	68	114	418.25921199982986	NA	NA	NA	NA	418.8089077002369	418.8089077002369	left	0	2.275121999904514	NA	NA	eaj	001	2026-03-03_17h51.56.934	MR	2023.1.0	59.85808839477207	NA
mr_images/4_b.png	mr_images/4_b_z_225.png	left	ccw	135	NA	NA	NA	NA	0	69	69	119	421.1087805000134	NA	NA	NA	NA	421.6419588001445	421.6419588001445	left	1	4.3451129999011755	NA	NA	eaj	001	2026-03-03_17h51.56.934	MR	2023.1.0	59.85808839477207	NA
mr_images/4_a.png	mr_images/4_b_z_90.png	right	cw	90	NA	NA	NA	NA	0	70	70	100	426.0082419998944	NA	NA	NA	NA	426.5580104999244	426.5580104999244	None	0	NA	NA	NA	eaj	001	2026-03-03_17h51.56.934	MR	2023.1.0	59.85808839477207	NA
mr_images/5_b.png	mr_images/5_a_z_90.png	right	cw	90	NA	NA	NA	NA	0	71	71	136	431.5238526999019	NA	NA	NA	NA	NA	432.05713530024514	None	0	NA	NA	NA	eaj	001	2026-03-03_17h51.56.934	MR	2023.1.0	59.85808839477207	NA
mr_images/11_b.png	mr_images/11_a_z_225.png	right	ccw	135	NA	NA	NA	NA	0	72	72	46	437.023178699892	NA	NA	NA	NA	NA	437.5393436001614	left	0	2.7053175000473857	NA	NA	eaj	001	2026-03-03_17h51.56.934	MR	2023.1.0	59.85808839477207	NA
mr_images/6_a.png	mr_images/6_b_z_270.png	right	ccw	90	NA	NA	NA	NA	0	73	73	150	440.26026770006865	NA	NA	NA	NA	440.8225321001373	440.8225321001373	left	0	3.0944946999661624	NA	NA	eaj	001	2026-03-03_17h51.56.934	MR	2023.1.0	59.85808839477207	NA
mr_images/4_a.png	mr_images/4_b_z_315.png	right	ccw	45	NA	NA	NA	NA	0	74	74	98	443.93882900010794	NA	NA	NA	NA	444.488818900194	444.488818900194	left	0	1.545745899900794	NA	NA	eaj	001	2026-03-03_17h51.56.934	MR	2023.1.0	59.85808839477207	NA
mr_images/3_b.png	mr_images/3_b_z_45.png	left	cw	45	NA	NA	NA	NA	0	75	75	85	446.0550998002291	NA	NA	NA	NA	446.605171199888	446.605171199888	right	0	3.699724599719047	NA	NA	eaj	001	2026-03-03_17h51.56.934	MR	2023.1.0	59.85808839477207	NA
mr_images/12_a.png	mr_images/12_b_z_90.png	right	cw	90	NA	NA	NA	NA	0	76	76	52	450.3213248001411	NA	NA	NA	NA	450.85468359990045	450.85468359990045	left	0	1.6235019001178443	NA	NA	eaj	001	2026-03-03_17h51.56.934	MR	2023.1.0	59.85808839477207	NA
mr_images/7_b.png	mr_images/7_b_z_225.png	left	ccw	135	NA	NA	NA	NA	0	77	77	191	452.5043466999195	NA	NA	NA	NA	453.0543272998184	453.0543272998184	right	0	2.641633899882436	NA	NA	eaj	001	2026-03-03_17h51.56.934	MR	2023.1.0	59.85808839477207	NA
mr_images/5_a.png	mr_images/5_b_z_90.png	right	cw	90	NA	NA	NA	NA	0	78	78	124	455.7208238998428	NA	NA	NA	NA	456.2872386001982	456.2872386001982	left	0	2.8991847997531295	NA	NA	eaj	001	2026-03-03_17h51.56.934	MR	2023.1.0	59.85808839477207	NA
mr_images/5_b.png	mr_images/5_a_z_225.png	right	ccw	135	NA	NA	NA	NA	0	79	79	142	459.203866600059	NA	NA	NA	NA	459.769963900093	459.769963900093	left	0	2.4622025000862777	NA	NA	eaj	001	2026-03-03_17h51.56.934	MR	2023.1.0	59.85808839477207	NA
mr_images/11_a.png	mr_images/11_b_z_270.png	right	ccw	90	NA	NA	NA	NA	0	80	80	30	462.25294370017946	NA	NA	NA	NA	462.789516299963	462.789516299963	left	0	2.241322800051421	NA	NA	eaj	001	2026-03-03_17h51.56.934	MR	2023.1.0	59.85808839477207	NA
mr_images/9_a.png	mr_images/9_b_z_225.png	right	ccw	135	NA	NA	NA	NA	0	81	81	202	465.0568152000196	NA	NA	NA	NA	465.5857521998696	465.5857521998696	left	0	3.938468999695033	NA	NA	eaj	001	2026-03-03_17h51.56.934	MR	2023.1.0	59.85808839477207	NA
mr_images/1_b.png	mr_images/1_a_z_135.png	right	cw	135	NA	NA	NA	NA	0	82	82	20	469.5521793002262	NA	NA	NA	NA	470.10185790015385	470.10185790015385	left	0	3.246570599731058	NA	NA	eaj	001	2026-03-03_17h51.56.934	MR	2023.1.0	59.85808839477207	NA
mr_images/7_a.png	mr_images/7_b_z_315.png	right	ccw	45	NA	NA	NA	NA	0	83	83	170	473.3680275999941	NA	NA	NA	NA	473.92004049988464	473.92004049988464	left	0	2.50408579967916	NA	NA	eaj	001	2026-03-03_17h51.56.934	MR	2023.1.0	59.85808839477207	NA
mr_images/5_b.png	mr_images/5_b_z_270.png	left	ccw	90	NA	NA	NA	NA	0	84	84	139	476.4552341001108	NA	NA	NA	NA	476.9840555000119	476.9840555000119	right	0	2.93179539963603	NA	NA	eaj	001	2026-03-03_17h51.56.934	MR	2023.1.0	59.85808839477207	NA
mr_images/4_a.png	mr_images/4_a_z_90.png	left	cw	90	NA	NA	NA	NA	0	85	85	101	479.9338426999748	NA	NA	NA	NA	480.46687619993463	480.46687619993463	left	1	4.6008409997448325	NA	NA	eaj	001	2026-03-03_17h51.56.934	MR	2023.1.0	59.85808839477207	NA
mr_images/12_a.png	mr_images/12_a_z_225.png	left	ccw	135	NA	NA	NA	NA	0	86	86	59	485.1000530999154	NA	NA	NA	NA	485.6526009002701	485.6526009002701	right	0	3.9898421997204423	NA	NA	eaj	001	2026-03-03_17h51.56.934	MR	2023.1.0	59.85808839477207	NA
mr_images/7_a.png	mr_images/7_a_z_45.png	left	cw	45	NA	NA	NA	NA	0	87	87	169	489.67006090004	NA	NA	NA	NA	490.2324168002233	490.2324168002233	right	0	3.3424881999380887	NA	NA	eaj	001	2026-03-03_17h51.56.934	MR	2023.1.0	59.85808839477207	NA
mr_images/6_a.png	mr_images/6_a_z_90.png	left	cw	90	NA	NA	NA	NA	0	88	88	149	493.598705700133	NA	NA	NA	NA	494.16523799998686	494.16523799998686	right	0	4.032634699717164	NA	NA	eaj	001	2026-03-03_17h51.56.934	MR	2023.1.0	59.85808839477207	NA
mr_images/9_a.png	mr_images/9_b_z_270.png	right	ccw	90	NA	NA	NA	NA	0	89	89	198	498.2147528999485	NA	NA	NA	NA	498.7816236000508	498.7816236000508	left	0	1.4537702999077735	NA	NA	eaj	001	2026-03-03_17h51.56.934	MR	2023.1.0	59.85808839477207	NA
mr_images/12_a.png	mr_images/12_a_z_270.png	left	ccw	90	NA	NA	NA	NA	0	90	90	55	500.2642720998265	NA	NA	NA	NA	500.8170182001777	500.8170182001777	None	0	NA	NA	NA	eaj	001	2026-03-03_17h51.56.934	MR	2023.1.0	59.85808839477207	NA
mr_images/7_b.png	mr_images/7_b_z_135.png	left	cw	135	NA	NA	NA	NA	0	91	91	189	505.7679663002491	NA	NA	NA	NA	NA	506.3312641000375	right	0	2.7847276995889843	NA	NA	eaj	001	2026-03-03_17h51.56.934	MR	2023.1.0	59.85808839477207	NA
mr_images/6_b.png	mr_images/6_b_z_45.png	left	cw	45	NA	NA	NA	NA	0	92	92	157	509.1464225002565	NA	NA	NA	NA	509.7131600002758	509.7131600002758	left	1	4.863639799878001	NA	NA	eaj	001	2026-03-03_17h51.56.934	MR	2023.1.0	59.85808839477207	NA
mr_images/11_b.png	mr_images/11_b_z_135.png	left	cw	135	NA	NA	NA	NA	0	93	93	45	514.5958584998734	NA	NA	NA	NA	515.1288306000642	515.1288306000642	right	0	3.848102599848062	NA	NA	eaj	001	2026-03-03_17h51.56.934	MR	2023.1.0	59.85808839477207	NA
mr_images/11_a.png	mr_images/11_a_z_45.png	left	cw	45	NA	NA	NA	NA	0	94	94	25	518.9950065999292	NA	NA	NA	NA	519.5485057001933	519.5485057001933	right	0	4.075274100061506	NA	NA	eaj	001	2026-03-03_17h51.56.934	MR	2023.1.0	59.85808839477207	NA
mr_images/6_b.png	mr_images/6_b_z_90.png	left	cw	90	NA	NA	NA	NA	0	95	95	161	523.6486507998779	NA	NA	NA	NA	NA	524.1942317001522	right	0	3.4578132000751793	NA	NA	eaj	001	2026-03-03_17h51.56.934	MR	2023.1.0	59.85808839477207	NA
mr_images/7_a.png	mr_images/7_b_z_225.png	right	ccw	135	NA	NA	NA	NA	0	96	96	178	527.6771955001168	NA	NA	NA	NA	528.21051419992	528.21051419992	left	0	3.271580300293863	NA	NA	eaj	001	2026-03-03_17h51.56.934	MR	2023.1.0	59.85808839477207	NA
mr_images/5_a.png	mr_images/5_a_z_45.png	left	cw	45	NA	NA	NA	NA	0	97	97	121	531.5103676002473	NA	NA	NA	NA	532.0765820001252	532.0765820001252	right	0	4.470540099777281	NA	NA	eaj	001	2026-03-03_17h51.56.934	MR	2023.1.0	59.85808839477207	NA
mr_images/12_b.png	mr_images/12_a_z_315.png	right	ccw	45	NA	NA	NA	NA	0	98	98	62	536.5759892999195	NA	NA	NA	NA	537.1092723999172	537.1092723999172	left	0	0.9779620999470352	NA	NA	eaj	001	2026-03-03_17h51.56.934	MR	2023.1.0	59.85808839477207	NA
mr_images/12_b.png	mr_images/12_a_z_225.png	right	ccw	135	NA	NA	NA	NA	0	99	99	70	538.1091089998372	NA	NA	NA	NA	538.6425971002318	538.6425971002318	right	1	2.826946400105953	NA	NA	eaj	001	2026-03-03_17h51.56.934	MR	2023.1.0	59.85808839477207	NA
mr_images/5_a.png	mr_images/5_b_z_135.png	right	cw	135	NA	NA	NA	NA	0	100	100	128	541.4920189999975	NA	NA	NA	NA	542.042234600056	542.042234600056	left	0	2.009608299937099	NA	NA	eaj	001	2026-03-03_17h51.56.934	MR	2023.1.0	59.85808839477207	NA
mr_images/12_b.png	mr_images/12_b_z_135.png	left	cw	135	NA	NA	NA	NA	0	101	101	69	544.0750053999946	NA	NA	NA	NA	544.6416150000878	544.6416150000878	right	0	2.751166199799627	NA	NA	eaj	001	2026-03-03_17h51.56.934	MR	2023.1.0	59.85808839477207	NA
mr_images/3_b.png	mr_images/3_a_z_315.png	right	ccw	45	NA	NA	NA	NA	0	102	102	86	547.4245430999435	NA	NA	NA	NA	547.9780488000251	547.9780488000251	left	0	1.2309609996154904	NA	NA	eaj	001	2026-03-03_17h51.56.934	MR	2023.1.0	59.85808839477207	NA
mr_images/12_a.png	mr_images/12_a_z_135.png	left	cw	135	NA	NA	NA	NA	0	103	103	57	549.2284960001707	NA	NA	NA	NA	NA	549.7605179999955	right	0	1.8484712997451425	NA	NA	eaj	001	2026-03-03_17h51.56.934	MR	2023.1.0	59.85808839477207	NA
mr_images/9_b.png	mr_images/9_b_z_45.png	left	cw	45	NA	NA	NA	NA	0	104	104	205	551.6280482001603	NA	NA	NA	NA	552.1756532001309	552.1756532001309	right	0	3.26093229977414	NA	NA	eaj	001	2026-03-03_17h51.56.934	MR	2023.1.0	59.85808839477207	NA
mr_images/3_a.png	mr_images/3_b_z_315.png	right	ccw	45	NA	NA	NA	NA	0	105	105	74	555.4608485000208	NA	NA	NA	NA	556.0066925999708	556.0066925999708	left	0	1.009478099644184	NA	NA	eaj	001	2026-03-03_17h51.56.934	MR	2023.1.0	59.85808839477207	NA
mr_images/9_a.png	mr_images/9_a_z_45.png	left	cw	45	NA	NA	NA	NA	0	106	106	193	557.0398332001641	NA	NA	NA	NA	557.5774782001972	557.5774782001972	right	0	3.86954959994182	NA	NA	eaj	001	2026-03-03_17h51.56.934	MR	2023.1.0	59.85808839477207	NA
mr_images/6_a.png	mr_images/6_b_z_135.png	right	cw	135	NA	NA	NA	NA	0	107	107	152	561.4767566998489	NA	NA	NA	NA	562.0055045001209	562.0055045001209	right	1	2.6970550999976695	NA	NA	eaj	001	2026-03-03_17h51.56.934	MR	2023.1.0	59.85808839477207	NA
mr_images/3_a.png	mr_images/3_b_z_135.png	right	cw	135	NA	NA	NA	NA	0	108	108	80	564.7220727000386	NA	NA	NA	NA	565.2886848002672	565.2886848002672	right	1	2.513131399638951	NA	NA	eaj	001	2026-03-03_17h51.56.934	MR	2023.1.0	59.85808839477207	NA
mr_images/11_a.png	mr_images/11_b_z_315.png	right	ccw	45	NA	NA	NA	NA	0	109	109	26	567.8217730000615	NA	NA	NA	NA	568.3593065999448	568.3593065999448	left	0	1.0501441000960767	NA	NA	eaj	001	2026-03-03_17h51.56.934	MR	2023.1.0	59.85808839477207	NA
mr_images/5_a.png	mr_images/5_b_z_225.png	right	ccw	135	NA	NA	NA	NA	0	110	110	130	569.4256799002178	NA	NA	NA	NA	569.987910900265	569.987910900265	left	0	3.405899899546057	NA	NA	eaj	001	2026-03-03_17h51.56.934	MR	2023.1.0	59.85808839477207	NA
mr_images/11_a.png	mr_images/11_b_z_45.png	right	cw	45	NA	NA	NA	NA	0	111	111	24	573.4209082000889	NA	NA	NA	NA	573.9707720000297	573.9707720000297	left	0	4.2321478999219835	NA	NA	eaj	001	2026-03-03_17h51.56.934	MR	2023.1.0	59.85808839477207	NA
mr_images/1_b.png	mr_images/1_b_z_90.png	left	cw	90	NA	NA	NA	NA	0	112	112	17	578.2203259002417	NA	NA	NA	NA	578.7575964001007	578.7575964001007	right	0	3.8527854001149535	NA	NA	eaj	001	2026-03-03_17h51.56.934	MR	2023.1.0	59.85808839477207	NA
mr_images/6_b.png	mr_images/6_a_z_135.png	right	cw	135	NA	NA	NA	NA	0	113	113	164	582.6405671001412	NA	NA	NA	NA	583.1861637998372	583.1861637998372	left	0	2.970983600243926	NA	NA	eaj	001	2026-03-03_17h51.56.934	MR	2023.1.0	59.85808839477207	NA
mr_images/6_b.png	mr_images/6_a_z_45.png	right	cw	45	NA	NA	NA	NA	0	114	114	156	586.1858300999738	NA	NA	NA	NA	586.7521386998706	586.7521386998706	left	0	2.6355643002316356	NA	NA	eaj	001	2026-03-03_17h51.56.934	MR	2023.1.0	59.85808839477207	NA
mr_images/7_b.png	mr_images/7_b_z_90.png	left	cw	90	NA	NA	NA	NA	0	115	115	185	589.4187822001986	NA	NA	NA	NA	589.9686054000631	589.9686054000631	right	0	3.383740700315684	NA	NA	eaj	001	2026-03-03_17h51.56.934	MR	2023.1.0	59.85808839477207	NA
mr_images/9_a.png	mr_images/9_b_z_135.png	right	cw	135	NA	NA	NA	NA	0	116	116	200	593.3847397002392	NA	NA	NA	NA	593.9180586999282	593.9180586999282	left	0	2.2715036999434233	NA	NA	eaj	001	2026-03-03_17h51.56.934	MR	2023.1.0	59.85808839477207	NA
mr_images/11_b.png	mr_images/11_b_z_90.png	left	cw	90	NA	NA	NA	NA	0	117	117	41	596.2177209001966	NA	NA	NA	NA	596.7676305002533	596.7676305002533	left	1	2.1722001996822655	NA	NA	eaj	001	2026-03-03_17h51.56.934	MR	2023.1.0	59.85808839477207	NA
mr_images/7_a.png	mr_images/7_a_z_90.png	left	cw	90	NA	NA	NA	NA	0	118	118	173	598.9675834001973	NA	NA	NA	NA	599.5202724998817	599.5202724998817	right	0	1.760881599970162	NA	NA	eaj	001	2026-03-03_17h51.56.934	MR	2023.1.0	59.85808839477207	NA
mr_images/3_a.png	mr_images/3_a_z_90.png	left	cw	90	NA	NA	NA	NA	0	119	119	77	601.3045279998332	NA	NA	NA	NA	601.8502396000549	601.8502396000549	right	0	4.6605870998464525	NA	NA	eaj	001	2026-03-03_17h51.56.934	MR	2023.1.0	59.85808839477207	NA
mr_images/3_b.png	mr_images/3_b_z_135.png	left	cw	135	NA	NA	NA	NA	0	120	120	93	606.5332931000739	NA	NA	NA	NA	607.0661456999369	607.0661456999369	right	0	4.307287799660116	NA	NA	eaj	001	2026-03-03_17h51.56.934	MR	2023.1.0	59.85808839477207	NA
mr_images/9_a.png	mr_images/9_a_z_315.png	left	ccw	45	NA	NA	NA	NA	0	121	121	195	611.3990838001482	NA	NA	NA	NA	611.9319604001939	611.9319604001939	right	0	2.2018936998210847	NA	NA	eaj	001	2026-03-03_17h51.56.934	MR	2023.1.0	59.85808839477207	NA
mr_images/5_a.png	mr_images/5_b_z_270.png	right	ccw	90	NA	NA	NA	NA	0	122	122	126	614.1655720998533	NA	NA	NA	NA	614.6984168002382	614.6984168002382	left	0	3.4925219998694956	NA	NA	eaj	001	2026-03-03_17h51.56.934	MR	2023.1.0	59.85808839477207	NA
mr_images/11_a.png	mr_images/11_a_z_315.png	left	ccw	45	NA	NA	NA	NA	0	123	123	27	618.2146602999419	NA	NA	NA	NA	618.7813392998651	618.7813392998651	right	0	1.96980610024184	NA	NA	eaj	001	2026-03-03_17h51.56.934	MR	2023.1.0	59.85808839477207	NA
mr_images/4_a.png	mr_images/4_b_z_45.png	right	cw	45	NA	NA	NA	NA	0	124	124	96	620.781084400136	NA	NA	NA	NA	621.3170388001017	621.3170388001017	None	0	NA	NA	NA	eaj	001	2026-03-03_17h51.56.934	MR	2023.1.0	59.85808839477207	NA
mr_images/3_a.png	mr_images/3_b_z_90.png	right	cw	90	NA	NA	NA	NA	0	125	125	76	626.2844088999555	NA	NA	NA	NA	NA	626.8302090000361	right	1	2.786483899690211	NA	NA	eaj	001	2026-03-03_17h51.56.934	MR	2023.1.0	59.85808839477207	NA
mr_images/7_b.png	mr_images/7_a_z_90.png	right	cw	90	NA	NA	NA	NA	0	126	126	184	629.6464220001362	NA	NA	NA	NA	630.1799750998616	630.1799750998616	left	0	1.8750657001510265	NA	NA	eaj	001	2026-03-03_17h51.56.934	MR	2023.1.0	59.85808839477207	NA
mr_images/5_a.png	mr_images/5_b_z_315.png	right	ccw	45	NA	NA	NA	NA	0	127	127	122	632.079338400159	NA	NA	NA	NA	632.615294100251	632.615294100251	left	0	3.361193499993533	NA	NA	eaj	001	2026-03-03_17h51.56.934	MR	2023.1.0	59.85808839477207	NA
mr_images/4_b.png	mr_images/4_b_z_90.png	left	cw	90	NA	NA	NA	NA	0	128	128	113	635.9996980000287	NA	NA	NA	NA	NA	636.5500157000497	right	0	2.866779999807477	NA	NA	eaj	001	2026-03-03_17h51.56.934	MR	2023.1.0	59.85808839477207	NA
mr_images/4_b.png	mr_images/4_a_z_90.png	right	cw	90	NA	NA	NA	NA	0	129	129	112	639.4325800002553	NA	NA	NA	NA	639.9666746002622	639.9666746002622	left	0	3.8575471001677215	NA	NA	eaj	001	2026-03-03_17h51.56.934	MR	2023.1.0	59.85808839477207	NA
mr_images/9_a.png	mr_images/9_b_z_90.png	right	cw	90	NA	NA	NA	NA	0	130	130	196	643.8486295999028	NA	NA	NA	NA	644.4110556002706	644.4110556002706	left	0	3.3755553998053074	NA	NA	eaj	001	2026-03-03_17h51.56.934	MR	2023.1.0	59.85808839477207	NA
mr_images/9_b.png	mr_images/9_a_z_45.png	right	cw	45	NA	NA	NA	NA	0	131	131	204	647.8108234000392	NA	NA	NA	NA	648.3437632001005	648.3437632001005	left	0	2.1251485999673605	NA	NA	eaj	001	2026-03-03_17h51.56.934	MR	2023.1.0	59.85808839477207	NA
mr_images/6_b.png	mr_images/6_b_z_315.png	left	ccw	45	NA	NA	NA	NA	0	132	132	159	650.4936930001713	NA	NA	NA	NA	651.0605196999386	651.0605196999386	right	0	4.473635099828243	NA	NA	eaj	001	2026-03-03_17h51.56.934	MR	2023.1.0	59.85808839477207	NA
mr_images/5_a.png	mr_images/5_a_z_270.png	left	ccw	90	NA	NA	NA	NA	0	133	133	127	655.5595295000821	NA	NA	NA	NA	656.1103508002125	656.1103508002125	None	0	NA	NA	NA	eaj	001	2026-03-03_17h51.56.934	MR	2023.1.0	59.85808839477207	NA
mr_images/12_a.png	mr_images/12_b_z_135.png	right	cw	135	NA	NA	NA	NA	0	134	134	56	661.0754435998388	NA	NA	NA	NA	NA	661.6133274999447	right	1	4.3330315998755395	NA	NA	eaj	001	2026-03-03_17h51.56.934	MR	2023.1.0	59.85808839477207	NA
mr_images/5_b.png	mr_images/5_a_z_45.png	right	cw	45	NA	NA	NA	NA	0	135	135	132	665.9622869002633	NA	NA	NA	NA	666.4912103000097	666.4912103000097	left	0	3.48826659983024	NA	NA	eaj	001	2026-03-03_17h51.56.934	MR	2023.1.0	59.85808839477207	NA
mr_images/9_b.png	mr_images/9_b_z_90.png	left	cw	90	NA	NA	NA	NA	0	136	136	209	670.0078010000288	NA	NA	NA	NA	670.5415552002378	670.5415552002378	right	0	3.639815299771726	NA	NA	eaj	001	2026-03-03_17h51.56.934	MR	2023.1.0	59.85808839477207	NA
mr_images/11_b.png	mr_images/11_a_z_45.png	right	cw	45	NA	NA	NA	NA	0	137	137	36	674.2070769998245	NA	NA	NA	NA	674.7401725002564	674.7401725002564	right	1	2.825887699611485	NA	NA	eaj	001	2026-03-03_17h51.56.934	MR	2023.1.0	59.85808839477207	NA
mr_images/12_b.png	mr_images/12_a_z_90.png	right	cw	90	NA	NA	NA	NA	0	138	138	64	677.5896987998858	NA	NA	NA	NA	678.1229130001739	678.1229130001739	left	0	2.5434373999014497	NA	NA	eaj	001	2026-03-03_17h51.56.934	MR	2023.1.0	59.85808839477207	NA
mr_images/4_b.png	mr_images/4_a_z_135.png	right	cw	135	NA	NA	NA	NA	0	139	139	116	680.6893368000165	NA	NA	NA	NA	681.2558562001213	681.2558562001213	left	0	2.7632440999150276	NA	NA	eaj	001	2026-03-03_17h51.56.934	MR	2023.1.0	59.85808839477207	NA
mr_images/6_a.png	mr_images/6_a_z_45.png	left	cw	45	NA	NA	NA	NA	0	140	140	145	684.0388596002012	NA	NA	NA	NA	684.5720051000826	684.5720051000826	right	0	3.2821884001605213	NA	NA	eaj	001	2026-03-03_17h51.56.934	MR	2023.1.0	59.85808839477207	NA
mr_images/4_b.png	mr_images/4_a_z_45.png	right	cw	45	NA	NA	NA	NA	0	141	141	108	687.8718329002149	NA	NA	NA	NA	688.4048472000286	688.4048472000286	left	0	2.051072799600661	NA	NA	eaj	001	2026-03-03_17h51.56.934	MR	2023.1.0	59.85808839477207	NA
mr_images/7_a.png	mr_images/7_a_z_315.png	left	ccw	45	NA	NA	NA	NA	0	142	142	171	690.487869199831	NA	NA	NA	NA	691.0042691999115	691.0042691999115	right	0	2.223899200093001	NA	NA	eaj	001	2026-03-03_17h51.56.934	MR	2023.1.0	59.85808839477207	NA
mr_images/4_a.png	mr_images/4_a_z_135.png	left	cw	135	NA	NA	NA	NA	0	143	143	105	693.2542667998932	NA	NA	NA	NA	693.7873678999022	693.7873678999022	right	0	2.4979517995379865	NA	NA	eaj	001	2026-03-03_17h51.56.934	MR	2023.1.0	59.85808839477207	NA
mr_images/1_b.png	mr_images/1_a_z_315.png	right	ccw	45	NA	NA	NA	NA	0	144	144	14	696.3043836001307	NA	NA	NA	NA	696.8596064001322	696.8596064001322	left	0	2.673144199885428	NA	NA	eaj	001	2026-03-03_17h51.56.934	MR	2023.1.0	59.85808839477207	NA
mr_images/12_b.png	mr_images/12_b_z_270.png	left	ccw	90	NA	NA	NA	NA	0	145	145	67	699.5575859998353	NA	NA	NA	NA	700.1032332000323	700.1032332000323	right	0	2.613815499935299	NA	NA	eaj	001	2026-03-03_17h51.56.934	MR	2023.1.0	59.85808839477207	NA
mr_images/3_a.png	mr_images/3_a_z_315.png	left	ccw	45	NA	NA	NA	NA	0	146	146	75	702.7364019998349	NA	NA	NA	NA	703.2694855001755	703.2694855001755	right	0	3.1002810997888446	NA	NA	eaj	001	2026-03-03_17h51.56.934	MR	2023.1.0	59.85808839477207	NA
mr_images/9_a.png	mr_images/9_a_z_225.png	left	ccw	135	NA	NA	NA	NA	0	147	147	203	706.4024661998264	NA	NA	NA	NA	706.9357316000387	706.9357316000387	right	0	2.5479827001690865	NA	NA	eaj	001	2026-03-03_17h51.56.934	MR	2023.1.0	59.85808839477207	NA
mr_images/1_a.png	mr_images/1_a_z_315.png	left	ccw	45	NA	NA	NA	NA	0	148	148	3	709.5021887999028	NA	NA	NA	NA	710.0352484998293	710.0352484998293	right	0	2.461629499681294	NA	NA	eaj	001	2026-03-03_17h51.56.934	MR	2023.1.0	59.85808839477207	NA
mr_images/7_b.png	mr_images/7_a_z_45.png	right	cw	45	NA	NA	NA	NA	0	149	149	180	712.5182039001957	NA	NA	NA	NA	713.0514905001037	713.0514905001037	left	0	4.498068599961698	NA	NA	eaj	001	2026-03-03_17h51.56.934	MR	2023.1.0	59.85808839477207	NA
mr_images/9_a.png	mr_images/9_b_z_45.png	right	cw	45	NA	NA	NA	NA	0	150	150	192	717.5675737001002	NA	NA	NA	NA	718.1009078002535	718.1009078002535	left	0	4.599378900136799	NA	NA	eaj	001	2026-03-03_17h51.56.934	MR	2023.1.0	59.85808839477207	NA
mr_images/6_a.png	mr_images/6_a_z_225.png	left	ccw	135	NA	NA	NA	NA	0	151	151	155	722.7168481000699	NA	NA	NA	NA	723.2501348000951	723.2501348000951	right	0	1.9833390000276268	NA	NA	eaj	001	2026-03-03_17h51.56.934	MR	2023.1.0	59.85808839477207	NA
mr_images/11_b.png	mr_images/11_b_z_315.png	left	ccw	45	NA	NA	NA	NA	0	152	152	39	725.249711799901	NA	NA	NA	NA	725.7830499000847	725.7830499000847	right	0	3.7388311997056007	NA	NA	eaj	001	2026-03-03_17h51.56.934	MR	2023.1.0	59.85808839477207	NA
mr_images/4_a.png	mr_images/4_a_z_225.png	left	ccw	135	NA	NA	NA	NA	0	153	153	107	729.5491686998866	NA	NA	NA	NA	730.1157333999872	730.1157333999872	right	0	1.8408826999366283	NA	NA	eaj	001	2026-03-03_17h51.56.934	MR	2023.1.0	59.85808839477207	NA
mr_images/12_b.png	mr_images/12_b_z_45.png	left	cw	45	NA	NA	NA	NA	0	154	154	61	731.9822820001282	NA	NA	NA	NA	732.5155050000176	732.5155050000176	right	0	2.447732400149107	NA	NA	eaj	001	2026-03-03_17h51.56.934	MR	2023.1.0	59.85808839477207	NA
mr_images/3_b.png	mr_images/3_a_z_45.png	right	cw	45	NA	NA	NA	NA	0	155	155	84	734.9818180999719	NA	NA	NA	NA	735.5149834002368	735.5149834002368	right	1	3.311946399975568	NA	NA	eaj	001	2026-03-03_17h51.56.934	MR	2023.1.0	59.85808839477207	NA
mr_images/12_a.png	mr_images/12_b_z_315.png	right	ccw	45	NA	NA	NA	NA	0	156	156	50	738.8483949000947	NA	NA	NA	NA	739.3867386998609	739.3867386998609	left	0	1.2752224998548627	NA	NA	eaj	001	2026-03-03_17h51.56.934	MR	2023.1.0	59.85808839477207	NA
mr_images/12_b.png	mr_images/12_b_z_225.png	left	ccw	135	NA	NA	NA	NA	0	157	157	71	740.6852500000969	NA	NA	NA	NA	741.2308986000717	741.2308986000717	right	0	1.8135981997475028	NA	NA	eaj	001	2026-03-03_17h51.56.934	MR	2023.1.0	59.85808839477207	NA
mr_images/5_b.png	mr_images/5_b_z_225.png	left	ccw	135	NA	NA	NA	NA	0	158	158	143	743.0641291001812	NA	NA	NA	NA	743.5972389001399	743.5972389001399	right	0	3.3943309001624584	NA	NA	eaj	001	2026-03-03_17h51.56.934	MR	2023.1.0	59.85808839477207	NA
mr_images/3_a.png	mr_images/3_a_z_135.png	left	cw	135	NA	NA	NA	NA	0	159	159	81	747.0133866998367	NA	NA	NA	NA	747.5465339999646	747.5465339999646	right	0	3.917172399815172	NA	NA	eaj	001	2026-03-03_17h51.56.934	MR	2023.1.0	59.85808839477207	NA
mr_images/5_b.png	mr_images/5_a_z_270.png	right	ccw	90	NA	NA	NA	NA	0	160	160	138	751.4963940000162	NA	NA	NA	NA	752.0168063002639	752.0168063002639	left	0	2.406535000074655	NA	NA	eaj	001	2026-03-03_17h51.56.934	MR	2023.1.0	59.85808839477207	NA
mr_images/1_b.png	mr_images/1_a_z_45.png	right	cw	45	NA	NA	NA	NA	0	161	161	12	754.4499768000096	NA	NA	NA	NA	NA	754.9958103001118	left	0	3.731320499908179	NA	NA	eaj	001	2026-03-03_17h51.56.934	MR	2023.1.0	59.85808839477207	NA
mr_images/9_b.png	mr_images/9_a_z_270.png	right	ccw	90	NA	NA	NA	NA	0	162	162	210	758.745087900199	NA	NA	NA	NA	759.2950788000599	759.2950788000599	left	0	3.2594018997624516	NA	NA	eaj	001	2026-03-03_17h51.56.934	MR	2023.1.0	59.85808839477207	NA
mr_images/1_a.png	mr_images/1_a_z_225.png	left	ccw	135	NA	NA	NA	NA	0	163	163	11	762.5779380998574	NA	NA	NA	NA	763.1444415999576	763.1444415999576	left	1	3.22102709999308	NA	NA	eaj	001	2026-03-03_17h51.56.934	MR	2023.1.0	59.85808839477207	NA
mr_images/11_b.png	mr_images/11_b_z_225.png	left	ccw	135	NA	NA	NA	NA	0	164	164	47	766.3941719001159	NA	NA	NA	NA	766.9152008001693	766.9152008001693	right	0	2.3391936998814344	NA	NA	eaj	001	2026-03-03_17h51.56.934	MR	2023.1.0	59.85808839477207	NA
mr_images/9_a.png	mr_images/9_b_z_315.png	right	ccw	45	NA	NA	NA	NA	0	165	165	194	769.2813086002134	NA	NA	NA	NA	769.815363000147	769.815363000147	left	0	1.5824187002144754	NA	NA	eaj	001	2026-03-03_17h51.56.934	MR	2023.1.0	59.85808839477207	NA
mr_images/1_b.png	mr_images/1_a_z_270.png	right	ccw	90	NA	NA	NA	NA	0	166	166	18	771.414285399951	NA	NA	NA	NA	771.9432753999718	771.9432753999718	left	0	2.7370353997685015	NA	NA	eaj	001	2026-03-03_17h51.56.934	MR	2023.1.0	59.85808839477207	NA
mr_images/1_b.png	mr_images/1_b_z_315.png	left	ccw	45	NA	NA	NA	NA	0	167	167	15	774.7096434999257	NA	NA	NA	NA	775.2427290002815	775.2427290002815	right	0	2.9189523002132773	NA	NA	eaj	001	2026-03-03_17h51.56.934	MR	2023.1.0	59.85808839477207	NA
mr_images/7_a.png	mr_images/7_b_z_270.png	right	ccw	90	NA	NA	NA	NA	0	168	168	174	778.1924816002138	NA	NA	NA	NA	778.7255751998164	778.7255751998164	left	0	1.9109505997039375	NA	NA	eaj	001	2026-03-03_17h51.56.934	MR	2023.1.0	59.85808839477207	NA
mr_images/12_a.png	mr_images/12_a_z_45.png	left	cw	45	NA	NA	NA	NA	0	169	169	49	780.6588563001715	NA	NA	NA	NA	781.1920400001109	781.1920400001109	right	0	2.775524899829179	NA	NA	eaj	001	2026-03-03_17h51.56.934	MR	2023.1.0	59.85808839477207	NA
mr_images/5_b.png	mr_images/5_b_z_45.png	left	cw	45	NA	NA	NA	NA	0	170	170	133	783.9916550000198	NA	NA	NA	NA	784.5288780000992	784.5288780000992	right	0	2.213074999861419	NA	NA	eaj	001	2026-03-03_17h51.56.934	MR	2023.1.0	59.85808839477207	NA
mr_images/3_b.png	mr_images/3_a_z_225.png	right	ccw	135	NA	NA	NA	NA	0	171	171	94	786.7621523002163	NA	NA	NA	NA	787.2911221999675	787.2911221999675	left	0	2.479906700085849	NA	NA	eaj	001	2026-03-03_17h51.56.934	MR	2023.1.0	59.85808839477207	NA
mr_images/9_a.png	mr_images/9_a_z_90.png	left	cw	90	NA	NA	NA	NA	0	172	172	197	789.7908395999111	NA	NA	NA	NA	790.3239339999855	790.3239339999855	right	0	3.425303000025451	NA	NA	eaj	001	2026-03-03_17h51.56.934	MR	2023.1.0	59.85808839477207	NA
mr_images/6_b.png	mr_images/6_a_z_90.png	right	cw	90	NA	NA	NA	NA	0	173	173	160	793.7736530001275	NA	NA	NA	NA	794.2913183998317	794.2913183998317	right	1	2.334893699735403	NA	NA	eaj	001	2026-03-03_17h51.56.934	MR	2023.1.0	59.85808839477207	NA
mr_images/4_b.png	mr_images/4_a_z_315.png	right	ccw	45	NA	NA	NA	NA	0	174	174	110	796.6566003002226	NA	NA	NA	NA	797.2232221998274	797.2232221998274	left	0	1.1811202997341752	NA	NA	eaj	001	2026-03-03_17h51.56.934	MR	2023.1.0	59.85808839477207	NA
mr_images/9_b.png	mr_images/9_b_z_225.png	left	ccw	135	NA	NA	NA	NA	0	175	175	215	798.4230089001358	NA	NA	NA	NA	798.9435433000326	798.9435433000326	right	0	1.56212309980765	NA	NA	eaj	001	2026-03-03_17h51.56.934	MR	2023.1.0	59.85808839477207	NA
mr_images/5_b.png	mr_images/5_b_z_90.png	left	cw	90	NA	NA	NA	NA	0	176	176	137	800.5226149000227	NA	NA	NA	NA	801.0557451001368	801.0557451001368	right	0	3.4744937997311354	NA	NA	eaj	001	2026-03-03_17h51.56.934	MR	2023.1.0	59.85808839477207	NA
mr_images/1_a.png	mr_images/1_a_z_90.png	left	cw	90	NA	NA	NA	NA	0	177	177	5	804.5559719000012	NA	NA	NA	NA	805.1251146998256	805.1251146998256	left	1	2.5001047998666763	NA	NA	eaj	001	2026-03-03_17h51.56.934	MR	2023.1.0	59.85808839477207	NA
mr_images/3_a.png	mr_images/3_b_z_270.png	right	ccw	90	NA	NA	NA	NA	0	178	178	78	807.6425875001587	NA	NA	NA	NA	808.1900805002078	808.1900805002078	left	0	2.069173599593342	NA	NA	eaj	001	2026-03-03_17h51.56.934	MR	2023.1.0	59.85808839477207	NA
mr_images/3_b.png	mr_images/3_b_z_225.png	left	ccw	135	NA	NA	NA	NA	0	179	179	95	810.2756035998464	NA	NA	NA	NA	810.821353700012	810.821353700012	right	0	2.2062702998518944	NA	NA	eaj	001	2026-03-03_17h51.56.934	MR	2023.1.0	59.85808839477207	NA
mr_images/1_b.png	mr_images/1_a_z_90.png	right	cw	90	NA	NA	NA	NA	0	180	180	16	813.0542935002595	NA	NA	NA	NA	813.5876600001939	813.5876600001939	right	1	2.4811067995615304	NA	NA	eaj	001	2026-03-03_17h51.56.934	MR	2023.1.0	59.85808839477207	NA
mr_images/1_b.png	mr_images/1_b_z_270.png	left	ccw	90	NA	NA	NA	NA	0	181	181	19	816.0872765001841	NA	NA	NA	NA	816.6370979002677	816.6370979002677	right	0	2.5323648997582495	NA	NA	eaj	001	2026-03-03_17h51.56.934	MR	2023.1.0	59.85808839477207	NA
mr_images/9_b.png	mr_images/9_b_z_315.png	left	ccw	45	NA	NA	NA	NA	0	182	182	207	819.187181700021	NA	NA	NA	NA	819.7200124999508	819.7200124999508	right	0	2.547774000093341	NA	NA	eaj	001	2026-03-03_17h51.56.934	MR	2023.1.0	59.85808839477207	NA
mr_images/1_b.png	mr_images/1_a_z_225.png	right	ccw	135	NA	NA	NA	NA	0	183	183	22	822.2864211001433	NA	NA	NA	NA	822.8196139000356	822.8196139000356	left	0	2.335263899993151	NA	NA	eaj	001	2026-03-03_17h51.56.934	MR	2023.1.0	59.85808839477207	NA
mr_images/11_b.png	mr_images/11_a_z_90.png	right	cw	90	NA	NA	NA	NA	0	184	184	40	825.1860317001119	NA	NA	NA	NA	825.7359290998429	825.7359290998429	left	0	3.5017567998729646	NA	NA	eaj	001	2026-03-03_17h51.56.934	MR	2023.1.0	59.85808839477207	NA
mr_images/9_b.png	mr_images/9_a_z_135.png	right	cw	135	NA	NA	NA	NA	0	185	185	212	829.2686823001131	NA	NA	NA	NA	829.81889759982	829.81889759982	left	0	2.32294959994033	NA	NA	eaj	001	2026-03-03_17h51.56.934	MR	2023.1.0	59.85808839477207	NA
mr_images/5_b.png	mr_images/5_b_z_135.png	left	cw	135	NA	NA	NA	NA	0	186	186	141	832.1682225000113	NA	NA	NA	NA	832.7015356002375	832.7015356002375	right	0	3.036757300142199	NA	NA	eaj	001	2026-03-03_17h51.56.934	MR	2023.1.0	59.85808839477207	NA
mr_images/1_a.png	mr_images/1_b_z_225.png	right	ccw	135	NA	NA	NA	NA	0	187	187	10	835.7679281998426	NA	NA	NA	NA	836.3054265999235	836.3054265999235	left	0	3.220660500228405	NA	NA	eaj	001	2026-03-03_17h51.56.934	MR	2023.1.0	59.85808839477207	NA
mr_images/12_b.png	mr_images/12_a_z_270.png	right	ccw	90	NA	NA	NA	NA	0	188	188	66	839.5548088001087	NA	NA	NA	NA	840.0835215998814	840.0835215998814	left	0	3.6240469999611378	NA	NA	eaj	001	2026-03-03_17h51.56.934	MR	2023.1.0	59.85808839477207	NA
mr_images/4_a.png	mr_images/4_a_z_315.png	left	ccw	45	NA	NA	NA	NA	0	189	189	99	843.7334229000844	NA	NA	NA	NA	844.2665870999917	844.2665870999917	right	0	2.494133699685335	NA	NA	eaj	001	2026-03-03_17h51.56.934	MR	2023.1.0	59.85808839477207	NA
mr_images/3_a.png	mr_images/3_a_z_225.png	left	ccw	135	NA	NA	NA	NA	0	190	190	83	846.7828973000869	NA	NA	NA	NA	847.3162238001823	847.3162238001823	right	0	4.53583010006696	NA	NA	eaj	001	2026-03-03_17h51.56.934	MR	2023.1.0	59.85808839477207	NA
mr_images/11_b.png	mr_images/11_a_z_315.png	right	ccw	45	NA	NA	NA	NA	0	191	191	38	851.8821882000193	NA	NA	NA	NA	852.4155069999397	852.4155069999397	left	0	1.98495850013569	NA	NA	eaj	001	2026-03-03_17h51.56.934	MR	2023.1.0	59.85808839477207	NA
mr_images/3_b.png	mr_images/3_a_z_90.png	right	cw	90	NA	NA	NA	NA	0	192	192	88	854.4319040002301	NA	NA	NA	NA	854.9650981002487	854.9650981002487	None	0	NA	NA	NA	eaj	001	2026-03-03_17h51.56.934	MR	2023.1.0	59.85808839477207	NA
mr_images/6_a.png	mr_images/6_b_z_45.png	right	cw	45	NA	NA	NA	NA	0	193	193	144	859.9477881998755	NA	NA	NA	NA	NA	860.4851465998217	right	1	3.0752498996444046	NA	NA	eaj	001	2026-03-03_17h51.56.934	MR	2023.1.0	59.85808839477207	NA
mr_images/9_a.png	mr_images/9_a_z_135.png	left	cw	135	NA	NA	NA	NA	0	194	194	201	863.5848460001871	NA	NA	NA	NA	NA	864.1305384002626	right	0	2.1489888997748494	NA	NA	eaj	001	2026-03-03_17h51.56.934	MR	2023.1.0	59.85808839477207	NA
mr_images/4_b.png	mr_images/4_a_z_225.png	right	ccw	135	NA	NA	NA	NA	0	195	195	118	866.2971974001266	NA	NA	NA	NA	866.8301305999048	866.8301305999048	left	0	2.1211945000104606	NA	NA	eaj	001	2026-03-03_17h51.56.934	MR	2023.1.0	59.85808839477207	NA
mr_images/5_a.png	mr_images/5_a_z_225.png	left	ccw	135	NA	NA	NA	NA	0	196	196	131	868.9797896002419	NA	NA	NA	NA	869.5135184000246	869.5135184000246	left	1	2.361756899859756	NA	NA	eaj	001	2026-03-03_17h51.56.934	MR	2023.1.0	59.85808839477207	NA
mr_images/4_a.png	mr_images/4_a_z_270.png	left	ccw	90	NA	NA	NA	NA	0	197	197	103	871.8961185999215	NA	NA	NA	NA	872.4462005998939	872.4462005998939	right	0	2.9040310997515917	NA	NA	eaj	001	2026-03-03_17h51.56.934	MR	2023.1.0	59.85808839477207	NA
mr_images/6_a.png	mr_images/6_b_z_225.png	right	ccw	135	NA	NA	NA	NA	0	198	198	154	875.3789401999675	NA	NA	NA	NA	875.9120694999583	875.9120694999583	left	0	2.126569399610162	NA	NA	eaj	001	2026-03-03_17h51.56.934	MR	2023.1.0	59.85808839477207	NA
mr_images/4_b.png	mr_images/4_b_z_270.png	left	ccw	90	NA	NA	NA	NA	0	199	199	115	878.0620125001296	NA	NA	NA	NA	878.5954100000672	878.5954100000672	right	0	2.105986400041729	NA	NA	eaj	001	2026-03-03_17h51.56.934	MR	2023.1.0	59.85808839477207	NA
mr_images/11_b.png	mr_images/11_a_z_270.png	right	ccw	90	NA	NA	NA	NA	0	200	200	42	880.7282548001967	NA	NA	NA	NA	881.262315500062	881.262315500062	left	0	2.045886099804193	NA	NA	eaj	001	2026-03-03_17h51.56.934	MR	2023.1.0	59.85808839477207	NA
mr_images/7_b.png	mr_images/7_a_z_135.png	right	cw	135	NA	NA	NA	NA	0	201	201	188	883.3278176002204	NA	NA	NA	NA	883.8491163998842	883.8491163998842	left	0	2.178474399726838	NA	NA	eaj	001	2026-03-03_17h51.56.934	MR	2023.1.0	59.85808839477207	NA
mr_images/9_b.png	mr_images/9_b_z_270.png	left	ccw	90	NA	NA	NA	NA	0	202	202	211	886.0608677999116	NA	NA	NA	NA	NA	886.5941714998335	right	0	4.2327216998673975	NA	NA	eaj	001	2026-03-03_17h51.56.934	MR	2023.1.0	59.85808839477207	NA
mr_images/7_b.png	mr_images/7_b_z_315.png	left	ccw	45	NA	NA	NA	NA	0	203	203	183	890.8435615999624	NA	NA	NA	NA	891.3765112999827	891.3765112999827	right	0	2.816090799868107	NA	NA	eaj	001	2026-03-03_17h51.56.934	MR	2023.1.0	59.85808839477207	NA
mr_images/5_b.png	mr_images/5_a_z_315.png	right	ccw	45	NA	NA	NA	NA	0	204	204	134	894.2097734999843	NA	NA	NA	NA	894.7429371001199	894.7429371001199	left	0	1.1580296996980906	NA	NA	eaj	001	2026-03-03_17h51.56.934	MR	2023.1.0	59.85808839477207	NA
mr_images/3_b.png	mr_images/3_a_z_135.png	right	cw	135	NA	NA	NA	NA	0	205	205	92	895.9262644001283	NA	NA	NA	NA	896.4594395998865	896.4594395998865	left	0	1.8482817998155951	NA	NA	eaj	001	2026-03-03_17h51.56.934	MR	2023.1.0	59.85808839477207	NA
mr_images/6_b.png	mr_images/6_b_z_270.png	left	ccw	90	NA	NA	NA	NA	0	206	206	163	898.3257915000431	NA	NA	NA	NA	898.8633121000603	898.8633121000603	right	0	2.092485399916768	NA	NA	eaj	001	2026-03-03_17h51.56.934	MR	2023.1.0	59.85808839477207	NA
mr_images/7_a.png	mr_images/7_b_z_135.png	right	cw	135	NA	NA	NA	NA	0	207	207	176	900.9796425001696	NA	NA	NA	NA	901.5083535001612	901.5083535001612	left	0	1.9698016000911591	NA	NA	eaj	001	2026-03-03_17h51.56.934	MR	2023.1.0	59.85808839477207	NA
mr_images/6_b.png	mr_images/6_a_z_270.png	right	ccw	90	NA	NA	NA	NA	0	208	208	162	903.5083552999422	NA	NA	NA	NA	904.0416808999144	904.0416808999144	left	0	2.960675999522209	NA	NA	eaj	001	2026-03-03_17h51.56.934	MR	2023.1.0	59.85808839477207	NA
mr_images/3_b.png	mr_images/3_b_z_270.png	left	ccw	90	NA	NA	NA	NA	0	209	209	91	907.0251537002624	NA	NA	NA	NA	907.5578017001972	907.5578017001972	right	0	2.1219790000468493	NA	NA	eaj	001	2026-03-03_17h51.56.934	MR	2023.1.0	59.85808839477207	NA
mr_images/6_a.png	mr_images/6_b_z_315.png	right	ccw	45	NA	NA	NA	NA	0	210	210	146	909.7074025999756	NA	NA	NA	NA	910.2445078999737	910.2445078999737	left	0	1.6190248001366854	NA	NA	eaj	001	2026-03-03_17h51.56.934	MR	2023.1.0	59.85808839477207	NA
mr_images/4_a.png	mr_images/4_b_z_135.png	right	cw	135	NA	NA	NA	NA	0	211	211	104	911.8947576000356	NA	NA	NA	NA	912.4255018001422	912.4255018001422	left	0	1.7452538996003568	NA	NA	eaj	001	2026-03-03_17h51.56.934	MR	2023.1.0	59.85808839477207	NA
mr_images/4_b.png	mr_images/4_b_z_315.png	left	ccw	45	NA	NA	NA	NA	0	212	212	111	914.1944634001702	NA	NA	NA	NA	914.7402591002174	914.7402591002174	right	0	1.4795047994703054	NA	NA	eaj	001	2026-03-03_17h51.56.934	MR	2023.1.0	59.85808839477207	NA
mr_images/3_a.png	mr_images/3_b_z_45.png	right	cw	45	NA	NA	NA	NA	0	213	213	72	916.2399741001428	NA	NA	NA	NA	916.7731142998672	916.7731142998672	left	0	3.3354676999151707	NA	NA	eaj	001	2026-03-03_17h51.56.934	MR	2023.1.0	59.85808839477207	NA
mr_images/6_b.png	mr_images/6_a_z_315.png	right	ccw	45	NA	NA	NA	NA	0	214	214	158	920.139504100196	NA	NA	NA	NA	920.6766590001062	920.6766590001062	left	0	2.7989488001912832	NA	NA	eaj	001	2026-03-03_17h51.56.934	MR	2023.1.0	59.85808839477207	NA
mr_images/1_a.png	mr_images/1_a_z_135.png	left	cw	135	NA	NA	NA	NA	0	215	215	9	923.4931720001624	NA	NA	NA	NA	924.0227585998364	924.0227585998364	right	0	3.40069800009951	NA	NA	eaj	001	2026-03-03_17h51.56.934	MR	2023.1.0	59.85808839477207	NA
NA	NA	NA	NA	NA	NA	NA	NA	NA	NA	NA	NA	NA	NA	NA	NA	NA	NA	NA	NA	NA	NA	NA	927.4557866998948	929.45495699998	NA	NA	NA	NA	NA	NA	NA
