sequence	training_session.thisRepN	training_session.thisTrialN	training_session.thisN	training_session.thisIndex	training_2n.thisRepN	training_2n.thisTrialN	training_2n.thisN	training_2n.thisIndex	training_3n.thisRepN	training_3n.thisTrialN	training_3n.thisN	training_3n.thisIndex	training_4n.thisRepN	training_4n.thisTrialN	training_4n.thisN	training_4n.thisIndex	allrep_2nback.thisRepN	allrep_2nback.thisTrialN	allrep_2nback.thisN	allrep_2nback.thisIndex	trials_2nback.thisRepN	trials_2nback.thisTrialN	trials_2nback.thisN	trials_2nback.thisIndex	allrep_3nback.thisRepN	allrep_3nback.thisTrialN	allrep_3nback.thisN	allrep_3nback.thisIndex	trials_3nback.thisRepN	trials_3nback.thisTrialN	trials_3nback.thisN	trials_3nback.thisIndex	allrep_4nback.thisRepN	allrep_4nback.thisTrialN	allrep_4nback.thisN	allrep_4nback.thisIndex	trials_4nback.thisRepN	trials_4nback.thisTrialN	trials_4nback.thisN	trials_4nback.thisIndex	buffer02_txt.started	test_griddot_resp2.started	test_griddot_resp2.keys	buffer23_txt.started	test_griddot_resp3.started	test_griddot_resp3.keys	buffer34_txt.started	test_griddot_resp4.started	test_griddot_resp4.keys	confirm_resp.started	confirm_resp.keys	confirm_resp.rt	instr_text_2.started	griddot_resp2.started	griddot_resp2.keys	griddot_resp2.rt	buffer23_txt.stopped	griddot_resp3.started	griddot_resp3.keys	griddot_resp3.rt	buffer34_txt.stopped	griddot_resp4.started	griddot_resp4.keys	griddot_resp4.rt	participant	session	date	expName	psychopyVersion	frameRate
[(1, 1), (2, 2), (1, 1), (0, 2), (1, 1), (1, 2), (0, 1), (0, 0)]	0	0	0	0	0	0	0	251	NA	NA	NA	NA	NA	NA	NA	NA	NA	NA	NA	NA	NA	NA	NA	NA	NA	NA	NA	NA	NA	NA	NA	NA	NA	NA	NA	NA	NA	NA	NA	NA	49.94807959999889	54.04305629990995	None	NA	NA	NA	NA	NA	NA	NA	NA	NA	NA	NA	NA	NA	NA	NA	NA	NA	NA	NA	NA	NA	aac	1	2026-06-01_13h48.46.524	SS	2023.1.0	60.1966504293597
[(2, 1), (1, 2), (1, 2), (0, 0), (1, 2), (0, 0), (1, 1), (1, 2)]	0	0	0	0	0	1	1	647	NA	NA	NA	NA	NA	NA	NA	NA	NA	NA	NA	NA	NA	NA	NA	NA	NA	NA	NA	NA	NA	NA	NA	NA	NA	NA	NA	NA	NA	NA	NA	NA	NA	70.9908686997369	None	NA	NA	NA	NA	NA	NA	NA	NA	NA	NA	NA	NA	NA	NA	NA	NA	NA	NA	NA	NA	NA	aac	1	2026-06-01_13h48.46.525	SS	2023.1.0	60.1966504293597
[(0, 2), (2, 2), (0, 0), (1, 0), (0, 0), (1, 1), (0, 0), (0, 2)]	0	0	0	0	0	2	2	610	NA	NA	NA	NA	NA	NA	NA	NA	NA	NA	NA	NA	NA	NA	NA	NA	NA	NA	NA	NA	NA	NA	NA	NA	NA	NA	NA	NA	NA	NA	NA	NA	NA	88.02159779984504	None	NA	NA	NA	NA	NA	NA	NA	NA	NA	NA	NA	NA	NA	NA	NA	NA	NA	NA	NA	NA	NA	aac	1	2026-06-01_13h48.46.526	SS	2023.1.0	60.1966504293597
[(0, 0), (2, 0), (0, 1), (0, 0), (2, 0), (0, 1), (1, 2), (1, 2), (1, 0)]	0	0	0	0	NA	NA	NA	NA	0	0	0	203	NA	NA	NA	NA	NA	NA	NA	NA	NA	NA	NA	NA	NA	NA	NA	NA	NA	NA	NA	NA	NA	NA	NA	NA	NA	NA	NA	NA	NA	NA	NA	104.9567985991016	109.00458299927412	None	NA	NA	NA	NA	NA	NA	NA	NA	NA	NA	NA	NA	NA	NA	NA	NA	NA	NA	aac	1	2026-06-01_13h48.46.527	SS	2023.1.0	60.1966504293597
[(2, 0), (0, 1), (0, 0), (2, 0), (0, 1), (2, 0), (1, 0), (0, 1), (2, 1)]	0	0	0	0	NA	NA	NA	NA	0	1	1	562	NA	NA	NA	NA	NA	NA	NA	NA	NA	NA	NA	NA	NA	NA	NA	NA	NA	NA	NA	NA	NA	NA	NA	NA	NA	NA	NA	NA	NA	NA	NA	NA	128.00240259990096	None	NA	NA	NA	NA	NA	NA	NA	NA	NA	NA	NA	NA	NA	NA	NA	NA	NA	NA	aac	1	2026-06-01_13h48.46.528	SS	2023.1.0	60.1966504293597
[(0, 2), (1, 2), (2, 2), (0, 2), (1, 2), (0, 1), (0, 0), (2, 1), (1, 2)]	0	0	0	0	NA	NA	NA	NA	0	2	2	174	NA	NA	NA	NA	NA	NA	NA	NA	NA	NA	NA	NA	NA	NA	NA	NA	NA	NA	NA	NA	NA	NA	NA	NA	NA	NA	NA	NA	NA	NA	NA	NA	146.99990869965404	None	NA	NA	NA	NA	NA	NA	NA	NA	NA	NA	NA	NA	NA	NA	NA	NA	NA	NA	aac	1	2026-06-01_13h48.46.529	SS	2023.1.0	60.1966504293597
[(0, 1), (2, 0), (0, 1), (1, 1), (0, 0), (2, 0), (0, 1), (1, 0), (0, 0), (1, 2)]	0	0	0	0	NA	NA	NA	NA	NA	NA	NA	NA	0	0	0	577	NA	NA	NA	NA	NA	NA	NA	NA	NA	NA	NA	NA	NA	NA	NA	NA	NA	NA	NA	NA	NA	NA	NA	NA	NA	NA	NA	NA	NA	NA	165.96085929963738	170.02701929956677	None	NA	NA	NA	NA	NA	NA	NA	NA	NA	NA	NA	NA	NA	NA	NA	aac	1	2026-06-01_13h48.46.530	SS	2023.1.0	60.1966504293597
[(1, 0), (1, 1), (0, 2), (0, 0), (2, 2), (1, 1), (0, 2), (0, 1), (1, 2), (2, 1)]	0	0	0	0	NA	NA	NA	NA	NA	NA	NA	NA	0	1	1	562	NA	NA	NA	NA	NA	NA	NA	NA	NA	NA	NA	NA	NA	NA	NA	NA	NA	NA	NA	NA	NA	NA	NA	NA	NA	NA	NA	NA	NA	NA	NA	191.02381849940863	None	NA	NA	NA	NA	NA	NA	NA	NA	NA	NA	NA	NA	NA	NA	NA	aac	1	2026-06-01_13h48.46.531	SS	2023.1.0	60.1966504293597
[(1, 0), (1, 0), (2, 1), (2, 2), (1, 1), (1, 0), (1, 0), (2, 2), (2, 2), (0, 1)]	0	0	0	0	NA	NA	NA	NA	NA	NA	NA	NA	0	2	2	230	NA	NA	NA	NA	NA	NA	NA	NA	NA	NA	NA	NA	NA	NA	NA	NA	NA	NA	NA	NA	NA	NA	NA	NA	NA	NA	NA	NA	NA	NA	NA	212.0218792995438	None	NA	NA	NA	NA	NA	NA	NA	NA	NA	NA	NA	NA	NA	NA	NA	aac	1	2026-06-01_13h48.46.532	SS	2023.1.0	60.1966504293597
NA	0	0	0	0	NA	NA	NA	NA	NA	NA	NA	NA	NA	NA	NA	NA	NA	NA	NA	NA	NA	NA	NA	NA	NA	NA	NA	NA	NA	NA	NA	NA	NA	NA	NA	NA	NA	NA	NA	NA	NA	NA	NA	NA	NA	NA	NA	NA	NA	231.9514033999294	y	18.788355601020157	NA	NA	NA	NA	NA	NA	NA	NA	NA	NA	NA	NA	aac	1	2026-06-01_13h48.46.533	SS	2023.1.0	60.1966504293597
[(2, 0), (2, 1), (2, 0), (0, 2), (2, 0), (2, 1), (2, 2), (2, 2)]	NA	NA	NA	NA	NA	NA	NA	NA	NA	NA	NA	NA	NA	NA	NA	NA	0	0	0	0	0	0	0	616	NA	NA	NA	NA	NA	NA	NA	NA	NA	NA	NA	NA	NA	NA	NA	NA	303.84146739915013	NA	NA	NA	NA	NA	NA	NA	NA	NA	NA	NA	250.79902349971235	307.8914652997628	['right', 'left', 'left', 'left', 'left', 'right']	[5.174926600418985, 6.743947899900377, 8.442919000051916, 10.705377700738609, 12.530322100035846, 14.431430900469422]	NA	NA	NA	NA	NA	NA	NA	NA	aac	1	2026-06-01_13h48.46.534	SS	2023.1.0	60.1966504293597
[(0, 0), (2, 1), (0, 0), (0, 0), (2, 1), (1, 1), (1, 0), (1, 1)]	NA	NA	NA	NA	NA	NA	NA	NA	NA	NA	NA	NA	NA	NA	NA	NA	0	0	0	0	0	1	1	10	NA	NA	NA	NA	NA	NA	NA	NA	NA	NA	NA	NA	NA	NA	NA	NA	NA	NA	NA	NA	NA	NA	NA	NA	NA	NA	NA	NA	NA	324.9051076993346	['right', 'left', 'left', 'left', 'left', 'right']	[4.622876200824976, 6.528785200789571, 8.813981801271439, 10.57114830147475, 12.527315401472151, 14.326488201506436]	NA	NA	NA	NA	NA	NA	NA	NA	aac	1	2026-06-01_13h48.46.535	SS	2023.1.0	60.1966504293597
[(2, 0), (0, 0), (2, 0), (1, 2), (0, 0), (2, 0), (0, 2), (2, 0)]	NA	NA	NA	NA	NA	NA	NA	NA	NA	NA	NA	NA	NA	NA	NA	NA	0	0	0	0	0	2	2	622	NA	NA	NA	NA	NA	NA	NA	NA	NA	NA	NA	NA	NA	NA	NA	NA	NA	NA	NA	NA	NA	NA	NA	NA	NA	NA	NA	NA	NA	341.9065921995789	['right', 'left', 'left', 'left', 'left', 'right']	[4.81437380053103, 6.518149401061237, 8.784413000568748, 10.90318680088967, 12.68491840083152, 14.49842860084027]	NA	NA	NA	NA	NA	NA	NA	NA	aac	1	2026-06-01_13h48.46.536	SS	2023.1.0	60.1966504293597
[(1, 2), (2, 2), (0, 0), (0, 2), (0, 0), (1, 2), (0, 2), (1, 2)]	NA	NA	NA	NA	NA	NA	NA	NA	NA	NA	NA	NA	NA	NA	NA	NA	0	0	0	0	0	3	3	77	NA	NA	NA	NA	NA	NA	NA	NA	NA	NA	NA	NA	NA	NA	NA	NA	NA	NA	NA	NA	NA	NA	NA	NA	NA	NA	NA	NA	NA	358.90386679954827	['left', 'left', 'right', 'left', 'left', 'right']	[4.900428700260818, 6.774522200226784, 8.438640700653195, 10.692837900482118, 12.690532300621271, 14.82203770056367]	NA	NA	NA	NA	NA	NA	NA	NA	aac	1	2026-06-01_13h48.46.537	SS	2023.1.0	60.1966504293597
[(1, 0), (1, 2), (1, 2), (0, 0), (1, 2), (0, 0), (2, 1), (1, 2)]	NA	NA	NA	NA	NA	NA	NA	NA	NA	NA	NA	NA	NA	NA	NA	NA	0	0	0	0	0	4	4	188	NA	NA	NA	NA	NA	NA	NA	NA	NA	NA	NA	NA	NA	NA	NA	NA	NA	NA	NA	NA	NA	NA	NA	NA	NA	NA	NA	NA	NA	375.88446949981153	['left', 'right', 'right', 'right', 'left', 'left']	[5.07210240047425, 6.720833100378513, 8.60768480040133, 10.870373601093888, 12.671702301129699, 14.624917401000857]	NA	NA	NA	NA	NA	NA	NA	NA	aac	1	2026-06-01_13h48.46.538	SS	2023.1.0	60.1966504293597
[(2, 2), (2, 0), (2, 1), (0, 0), (2, 0), (0, 0), (2, 0), (2, 0)]	NA	NA	NA	NA	NA	NA	NA	NA	NA	NA	NA	NA	NA	NA	NA	NA	0	0	0	0	0	5	5	552	NA	NA	NA	NA	NA	NA	NA	NA	NA	NA	NA	NA	NA	NA	NA	NA	NA	NA	NA	NA	NA	NA	NA	NA	NA	NA	NA	NA	NA	392.895160199143	['left', 'left', 'left', 'right', 'right', 'left']	[4.97790100146085, 6.997062001377344, 8.922294600866735, 10.862596801482141, 12.467093501240015, 14.589823900721967]	NA	NA	NA	NA	NA	NA	NA	NA	aac	1	2026-06-01_13h48.46.539	SS	2023.1.0	60.1966504293597
NA	NA	NA	NA	NA	NA	NA	NA	NA	NA	NA	NA	NA	NA	NA	NA	NA	NA	NA	NA	NA	NA	NA	NA	NA	NA	NA	NA	NA	NA	NA	NA	NA	NA	NA	NA	NA	NA	NA	NA	NA	NA	NA	NA	NA	NA	NA	NA	NA	NA	NA	NA	NA	NA	NA	NA	NA	NA	NA	NA	NA	NA	NA	NA	NA	aac	1	2026-06-01_13h48.46.540	SS	2023.1.0	60.1966504293597
[(0, 0), (2, 0), (2, 2), (0, 0), (2, 0), (0, 0), (2, 0), (2, 1)]	NA	NA	NA	NA	NA	NA	NA	NA	NA	NA	NA	NA	NA	NA	NA	NA	1	0	1	0	0	0	0	21	NA	NA	NA	NA	NA	NA	NA	NA	NA	NA	NA	NA	NA	NA	NA	NA	NA	NA	NA	NA	NA	NA	NA	NA	NA	NA	NA	NA	NA	410.9262600997463	['left', 'left', 'left', 'right', 'right', 'left']	[4.891711201518774, 6.746797300875187, 8.877241401001811, 10.583395101130009, 12.819784201681614, 14.5914854016155]	NA	NA	NA	NA	NA	NA	NA	NA	aac	1	2026-06-01_13h48.46.541	SS	2023.1.0	60.1966504293597
[(1, 1), (0, 0), (0, 0), (0, 0), (0, 0), (0, 0), (1, 0), (1, 1)]	NA	NA	NA	NA	NA	NA	NA	NA	NA	NA	NA	NA	NA	NA	NA	NA	1	0	1	0	0	1	1	258	NA	NA	NA	NA	NA	NA	NA	NA	NA	NA	NA	NA	NA	NA	NA	NA	NA	NA	NA	NA	NA	NA	NA	NA	NA	NA	NA	NA	NA	427.9089088998735	['left', 'right', 'left', 'right', 'left', 'right']	[4.922794500365853, 6.4674804005771875, 8.34862960036844, 10.440233200788498, 12.61849920079112, 14.58867990039289]	NA	NA	NA	NA	NA	NA	NA	NA	aac	1	2026-06-01_13h48.46.542	SS	2023.1.0	60.1966504293597
[(0, 1), (2, 1), (2, 2), (2, 1), (1, 2), (1, 2), (2, 0), (1, 2)]	NA	NA	NA	NA	NA	NA	NA	NA	NA	NA	NA	NA	NA	NA	NA	NA	1	0	1	0	0	5	5	520	NA	NA	NA	NA	NA	NA	NA	NA	NA	NA	NA	NA	NA	NA	NA	NA	NA	NA	NA	NA	NA	NA	NA	NA	NA	NA	NA	NA	NA	495.91420269943774	['left', 'right', 'left', 'right', 'left', 'right']	[4.604724300093949, 6.533861400559545, 8.661128900945187, 10.606315900571644, 12.642881700769067, 14.706041600555182]	NA	NA	NA	NA	NA	NA	NA	NA	aac	1	2026-06-01_13h48.46.543	SS	2023.1.0	60.1966504293597
[(1, 1), (1, 0), (1, 0), (2, 1), (1, 2), (2, 1), (1, 2), (1, 0)]	NA	NA	NA	NA	NA	NA	NA	NA	NA	NA	NA	NA	NA	NA	NA	NA	1	0	1	0	0	3	3	247	NA	NA	NA	NA	NA	NA	NA	NA	NA	NA	NA	NA	NA	NA	NA	NA	NA	NA	NA	NA	NA	NA	NA	NA	NA	NA	NA	NA	NA	461.92129749991	['left', 'left', 'left', 'right', 'right', 'left']	[4.789333100430667, 6.5986279007047415, 8.864184400066733, 10.487416800111532, 12.764734600670636, 14.573051100596786]	NA	NA	NA	NA	NA	NA	NA	NA	aac	1	2026-06-01_13h48.46.544	SS	2023.1.0	60.1966504293597
[(0, 2), (0, 2), (1, 1), (0, 2), (2, 1), (0, 2), (2, 2), (0, 0)]	NA	NA	NA	NA	NA	NA	NA	NA	NA	NA	NA	NA	NA	NA	NA	NA	1	0	1	0	0	4	4	595	NA	NA	NA	NA	NA	NA	NA	NA	NA	NA	NA	NA	NA	NA	NA	NA	NA	NA	NA	NA	NA	NA	NA	NA	NA	NA	NA	NA	NA	478.9500635992736	['left', 'right', 'left', 'right', 'left', 'left']	[5.1317382007837296, 7.2489254008978605, 8.873296100646257, 10.668146200478077, 12.793862100690603, 14.644002201035619]	NA	NA	NA	NA	NA	NA	NA	NA	aac	1	2026-06-01_13h48.46.545	SS	2023.1.0	60.1966504293597
[(2, 0), (0, 1), (1, 2), (0, 1), (0, 2), (2, 1), (2, 2), (2, 1)]	NA	NA	NA	NA	NA	NA	NA	NA	NA	NA	NA	NA	NA	NA	NA	NA	1	0	1	0	0	2	2	49	NA	NA	NA	NA	NA	NA	NA	NA	NA	NA	NA	NA	NA	NA	NA	NA	NA	NA	NA	NA	NA	NA	NA	NA	NA	NA	NA	NA	NA	444.8881337996572	['left', 'right', 'left', 'left', 'left', 'right']	[4.686978900805116, 6.702471500262618, 8.607838100753725, 10.477029900066555, 12.477394800633192, 14.5210518008098]	NA	NA	NA	NA	NA	NA	NA	NA	aac	1	2026-06-01_13h48.46.546	SS	2023.1.0	60.1966504293597
NA	NA	NA	NA	NA	NA	NA	NA	NA	NA	NA	NA	NA	NA	NA	NA	NA	NA	NA	NA	NA	NA	NA	NA	NA	0	0	0	0	0	0	0	490	NA	NA	NA	NA	NA	NA	NA	NA	NA	NA	NA	513.2121156994253	NA	NA	NA	NA	NA	NA	NA	NA	NA	NA	NA	NA	NA	NA	NA	NA	NA	NA	NA	NA	aac	1	2026-06-01_13h48.46.547	SS	2023.1.0	60.1966504293597
[(0, 2), (1, 1), (0, 2), (0, 2), (1, 1), (1, 1), (1, 2), (1, 1), (0, 0)]	NA	NA	NA	NA	NA	NA	NA	NA	NA	NA	NA	NA	NA	NA	NA	NA	NA	NA	NA	NA	NA	NA	NA	NA	NA	NA	NA	NA	NA	NA	NA	NA	NA	NA	NA	NA	NA	NA	NA	NA	NA	NA	NA	NA	NA	NA	NA	NA	NA	NA	NA	NA	NA	NA	NA	NA	516.2947751991451	517.2948736995459	['right', 'right', 'left', 'left', 'right', 'left']	[6.996356899966486, 9.039221299928613, 10.812643599929288, 13.777002700022422, 15.00086339993868, 16.863738299929537]	NA	NA	NA	NA	aac	1	2026-06-01_13h48.46.548	SS	2023.1.0	60.1966504293597
[(0, 2), (1, 0), (1, 0), (2, 0), (0, 1), (1, 0), (1, 2), (0, 1), (1, 2)]	NA	NA	NA	NA	NA	NA	NA	NA	NA	NA	NA	NA	NA	NA	NA	NA	NA	NA	NA	NA	NA	NA	NA	NA	0	0	0	0	0	1	1	529	NA	NA	NA	NA	NA	NA	NA	NA	NA	NA	NA	NA	NA	NA	NA	NA	NA	NA	NA	NA	NA	NA	NA	NA	NA	536.2585214991122	['left', 'left', 'right', 'left', 'right']	[6.678057400044054, 8.786730600055307, 11.499559400021099, 13.722088000038639, 15.210805700044148]	NA	NA	NA	NA	aac	1	2026-06-01_13h48.46.549	SS	2023.1.0	60.1966504293597
[(0, 2), (0, 1), (2, 0), (0, 2), (0, 2), (2, 2), (0, 2), (1, 1), (0, 1)]	NA	NA	NA	NA	NA	NA	NA	NA	NA	NA	NA	NA	NA	NA	NA	NA	NA	NA	NA	NA	NA	NA	NA	NA	0	0	0	0	0	2	2	675	NA	NA	NA	NA	NA	NA	NA	NA	NA	NA	NA	NA	NA	NA	NA	NA	NA	NA	NA	NA	NA	NA	NA	NA	NA	555.2892712997273	['left', 'right', 'left', 'left', 'right', 'left', 'right']	[6.842460299958475, 7.4916359999915585, 10.020970599958673, 11.381844599964097, 13.594001800054684, 15.879084200016223, 16.9855993000092]	NA	NA	NA	NA	aac	1	2026-06-01_13h48.46.550	SS	2023.1.0	60.1966504293597
[(2, 0), (2, 0), (2, 1), (2, 2), (2, 0), (2, 2), (2, 1), (2, 2), (2, 2)]	NA	NA	NA	NA	NA	NA	NA	NA	NA	NA	NA	NA	NA	NA	NA	NA	NA	NA	NA	NA	NA	NA	NA	NA	0	0	0	0	0	3	3	86	NA	NA	NA	NA	NA	NA	NA	NA	NA	NA	NA	NA	NA	NA	NA	NA	NA	NA	NA	NA	NA	NA	NA	NA	NA	574.2532039992511	['left', 'right', 'right', 'left', 'right', 'left']	[6.754976400057785, 10.220537799992599, 11.386324600083753, 12.947106500039808, 15.151409100042656, 17.049205400049686]	NA	NA	NA	NA	aac	1	2026-06-01_13h48.46.551	SS	2023.1.0	60.1966504293597
[(0, 2), (2, 1), (1, 0), (0, 2), (0, 2), (2, 2), (1, 1), (0, 2), (0, 1)]	NA	NA	NA	NA	NA	NA	NA	NA	NA	NA	NA	NA	NA	NA	NA	NA	NA	NA	NA	NA	NA	NA	NA	NA	0	0	0	0	0	4	4	203	NA	NA	NA	NA	NA	NA	NA	NA	NA	NA	NA	NA	NA	NA	NA	NA	NA	NA	NA	NA	NA	NA	NA	NA	NA	593.2839674996212	['right', 'left', 'left', 'left', 'right', 'left']	[6.963141900021583, 9.078752300003543, 12.106678599957377, 12.878637599991634, 15.625294800032862, 17.057989299995825]	NA	NA	NA	NA	aac	1	2026-06-01_13h48.46.552	SS	2023.1.0	60.1966504293597
[(0, 1), (0, 0), (2, 0), (2, 0), (1, 2), (0, 1), (2, 0), (1, 2), (1, 1)]	NA	NA	NA	NA	NA	NA	NA	NA	NA	NA	NA	NA	NA	NA	NA	NA	NA	NA	NA	NA	NA	NA	NA	NA	0	0	0	0	0	5	5	321	NA	NA	NA	NA	NA	NA	NA	NA	NA	NA	NA	NA	NA	NA	NA	NA	NA	NA	NA	NA	NA	NA	NA	NA	NA	612.2826685998589	['left', 'left', 'right', 'right', 'right', 'left']	[7.428502499940805, 8.95210439991206, 11.315461699967273, 13.509188600000925, 15.678023900021799, 16.972441499936394]	NA	NA	NA	NA	aac	1	2026-06-01_13h48.46.553	SS	2023.1.0	60.1966504293597
NA	NA	NA	NA	NA	NA	NA	NA	NA	NA	NA	NA	NA	NA	NA	NA	NA	NA	NA	NA	NA	NA	NA	NA	NA	0	0	0	0	NA	NA	NA	NA	NA	NA	NA	NA	NA	NA	NA	NA	NA	NA	NA	NA	NA	NA	NA	NA	NA	NA	NA	NA	NA	NA	NA	NA	NA	NA	NA	NA	NA	NA	NA	NA	aac	1	2026-06-01_13h48.46.554	SS	2023.1.0	60.1966504293597
[(1, 1), (0, 1), (2, 2), (1, 1), (1, 0), (0, 0), (0, 0), (1, 0), (2, 1)]	NA	NA	NA	NA	NA	NA	NA	NA	NA	NA	NA	NA	NA	NA	NA	NA	NA	NA	NA	NA	NA	NA	NA	NA	1	0	1	0	0	0	0	418	NA	NA	NA	NA	NA	NA	NA	NA	NA	NA	NA	NA	NA	NA	NA	NA	NA	NA	NA	NA	NA	NA	NA	NA	NA	632.4784323992208	['right', 'left', 'left', 'left', 'right', 'left']	[6.755708100041375, 10.208587100030854, 11.476202300051227, 13.639236300019547, 14.902301300084218, 17.304456900106743]	NA	NA	NA	NA	aac	1	2026-06-01_13h48.46.555	SS	2023.1.0	60.1966504293597
[(1, 2), (0, 2), (1, 2), (0, 0), (0, 2), (2, 1), (0, 0), (0, 0), (2, 2)]	NA	NA	NA	NA	NA	NA	NA	NA	NA	NA	NA	NA	NA	NA	NA	NA	NA	NA	NA	NA	NA	NA	NA	NA	1	0	1	0	0	1	1	404	NA	NA	NA	NA	NA	NA	NA	NA	NA	NA	NA	NA	NA	NA	NA	NA	NA	NA	NA	NA	NA	NA	NA	NA	NA	651.4626756999642	['left', 'left', 'left', 'right', 'right', 'left']	[7.34820469992701, 10.11368699988816, 10.903118199901655, 12.940230999956839, 15.805873099947348, 17.07184969994705]	NA	NA	NA	NA	aac	1	2026-06-01_13h48.46.556	SS	2023.1.0	60.1966504293597
[(1, 1), (2, 1), (1, 1), (1, 1), (2, 1), (0, 1), (0, 2), (1, 0), (2, 2)]	NA	NA	NA	NA	NA	NA	NA	NA	NA	NA	NA	NA	NA	NA	NA	NA	NA	NA	NA	NA	NA	NA	NA	NA	1	0	1	0	0	2	2	593	NA	NA	NA	NA	NA	NA	NA	NA	NA	NA	NA	NA	NA	NA	NA	NA	NA	NA	NA	NA	NA	NA	NA	NA	NA	670.4731370992959	['right', 'left', 'left', 'left', 'left', 'left']	[6.678061799961142, 10.36944419995416, 11.27468189992942, 12.947750699939206, 15.656531399930827, 17.052295199944638]	NA	NA	NA	NA	aac	1	2026-06-01_13h48.46.557	SS	2023.1.0	60.1966504293597
[(1, 1), (0, 0), (2, 0), (2, 2), (0, 2), (1, 2), (0, 0), (0, 2), (1, 2)]	NA	NA	NA	NA	NA	NA	NA	NA	NA	NA	NA	NA	NA	NA	NA	NA	NA	NA	NA	NA	NA	NA	NA	NA	1	0	1	0	0	3	3	365	NA	NA	NA	NA	NA	NA	NA	NA	NA	NA	NA	NA	NA	NA	NA	NA	NA	NA	NA	NA	NA	NA	NA	NA	NA	689.491166299209	['left', 'left', 'left', 'right', 'right', 'left']	[6.711549500003457, 9.183028199942783, 11.190384899964556, 13.129921199986711, 15.743064099922776, 16.893294099951163]	NA	NA	NA	NA	aac	1	2026-06-01_13h48.46.558	SS	2023.1.0	60.1966504293597
[(1, 2), (1, 2), (1, 0), (1, 1), (2, 1), (1, 2), (1, 1), (2, 1), (2, 1)]	NA	NA	NA	NA	NA	NA	NA	NA	NA	NA	NA	NA	NA	NA	NA	NA	NA	NA	NA	NA	NA	NA	NA	NA	1	0	1	0	0	4	4	70	NA	NA	NA	NA	NA	NA	NA	NA	NA	NA	NA	NA	NA	NA	NA	NA	NA	NA	NA	NA	NA	NA	NA	NA	NA	708.4708978999406	['left', 'left', 'right', 'left', 'left', 'right']	[7.514174900017679, 8.896552699967287, 10.873979500029236, 13.133398000034504, 15.312414100044407, 17.55238529993221]	NA	NA	NA	NA	aac	1	2026-06-01_13h48.46.559	SS	2023.1.0	60.1966504293597
[(0, 1), (2, 0), (1, 1), (0, 1), (0, 1), (2, 1), (0, 1), (2, 0), (0, 2)]	NA	NA	NA	NA	NA	NA	NA	NA	NA	NA	NA	NA	NA	NA	NA	NA	NA	NA	NA	NA	NA	NA	NA	NA	1	0	1	0	0	5	5	429	NA	NA	NA	NA	NA	NA	NA	NA	NA	NA	NA	NA	NA	NA	NA	NA	NA	NA	NA	NA	NA	NA	NA	NA	NA	727.4672468993813	['right', 'left', 'left', 'right', 'left', 'right']	[6.920760600012727, 9.268839000025764, 12.216477899928577, 12.85930519993417, 15.88503809995018, 17.517069299938157]	NA	NA	NA	NA	aac	1	2026-06-01_13h48.46.560	SS	2023.1.0	60.1966504293597
NA	NA	NA	NA	NA	NA	NA	NA	NA	NA	NA	NA	NA	NA	NA	NA	NA	NA	NA	NA	NA	NA	NA	NA	NA	1	0	1	0	NA	NA	NA	NA	NA	NA	NA	NA	NA	NA	NA	NA	NA	NA	NA	NA	NA	NA	NA	NA	NA	NA	NA	NA	NA	NA	NA	NA	NA	NA	NA	NA	NA	NA	NA	NA	aac	1	2026-06-01_13h48.46.561	SS	2023.1.0	60.1966504293597
[(2, 2), (1, 1), (1, 0), (0, 2), (1, 0), (1, 1), (1, 2), (1, 2), (2, 0), (1, 1)]	NA	NA	NA	NA	NA	NA	NA	NA	NA	NA	NA	NA	NA	NA	NA	NA	NA	NA	NA	NA	NA	NA	NA	NA	NA	NA	NA	NA	NA	NA	NA	NA	0	0	0	0	0	0	0	287	NA	NA	NA	NA	NA	NA	746.6791250994429	NA	NA	NA	NA	NA	NA	NA	NA	NA	NA	NA	NA	NA	749.7637081993744	750.7449695998803	['left', 'right', 'left', 'left', 'left', 'right']	[8.701703701168299, 10.622583400458097, 12.643419000320137, 14.682974800467491, 16.745329700410366, 19.046455300413072]	aac	1	2026-06-01_13h48.46.562	SS	2023.1.0	60.1966504293597
[(1, 2), (2, 1), (0, 2), (0, 1), (1, 2), (0, 0), (2, 1), (0, 2), (2, 0), (0, 0)]	NA	NA	NA	NA	NA	NA	NA	NA	NA	NA	NA	NA	NA	NA	NA	NA	NA	NA	NA	NA	NA	NA	NA	NA	NA	NA	NA	NA	NA	NA	NA	NA	0	0	0	0	0	1	1	319	NA	NA	NA	NA	NA	NA	NA	NA	NA	NA	NA	NA	NA	NA	NA	NA	NA	NA	NA	NA	NA	771.7777646994218	['right', 'left', 'left', 'right', 'left', 'right']	[8.727670600637794, 10.543007200583816, 12.60023630131036, 14.610735600814223, 16.61883980128914, 18.771640800870955]	aac	1	2026-06-01_13h48.46.563	SS	2023.1.0	60.1966504293597
[(2, 0), (2, 0), (1, 0), (2, 0), (2, 0), (1, 1), (1, 0), (1, 2), (2, 2), (1, 0)]	NA	NA	NA	NA	NA	NA	NA	NA	NA	NA	NA	NA	NA	NA	NA	NA	NA	NA	NA	NA	NA	NA	NA	NA	NA	NA	NA	NA	NA	NA	NA	NA	0	0	0	0	0	2	2	39	NA	NA	NA	NA	NA	NA	NA	NA	NA	NA	NA	NA	NA	NA	NA	NA	NA	NA	NA	NA	NA	792.7559524998069	['right', 'left', 'right', 'left', 'left', 'right']	[8.578858700580895, 10.49938220065087, 12.580995700322092, 14.537825700826943, 16.619832700118423, 18.69029680080712]	aac	1	2026-06-01_13h48.46.564	SS	2023.1.0	60.1966504293597
[(0, 0), (2, 2), (1, 1), (1, 2), (0, 0), (2, 2), (0, 0), (0, 1), (1, 2), (0, 2)]	NA	NA	NA	NA	NA	NA	NA	NA	NA	NA	NA	NA	NA	NA	NA	NA	NA	NA	NA	NA	NA	NA	NA	NA	NA	NA	NA	NA	NA	NA	NA	NA	0	0	0	0	0	3	3	408	NA	NA	NA	NA	NA	NA	NA	NA	NA	NA	NA	NA	NA	NA	NA	NA	NA	NA	NA	NA	NA	813.7529746992514	['right', 'left', 'left', 'left', 'left', 'left']	[8.804236900992692, 10.621434000320733, 12.540507800877094, 14.63984060101211, 16.50408950075507, 18.465443400666118]	aac	1	2026-06-01_13h48.46.565	SS	2023.1.0	60.1966504293597
[(1, 1), (2, 0), (2, 1), (1, 1), (1, 1), (2, 1), (2, 2), (1, 1), (1, 0), (1, 0)]	NA	NA	NA	NA	NA	NA	NA	NA	NA	NA	NA	NA	NA	NA	NA	NA	NA	NA	NA	NA	NA	NA	NA	NA	NA	NA	NA	NA	NA	NA	NA	NA	0	0	0	0	0	4	4	169	NA	NA	NA	NA	NA	NA	NA	NA	NA	NA	NA	NA	NA	NA	NA	NA	NA	NA	NA	NA	NA	834.7371915997937	['right', 'left', 'left', 'right', 'left', 'left']	[8.574886800721288, 10.503021100535989, 12.530454700812697, 14.454682600684464, 16.49373990111053, 18.40188950113952]	aac	1	2026-06-01_13h48.46.566	SS	2023.1.0	60.1966504293597
[(0, 2), (1, 0), (1, 2), (0, 2), (0, 2), (2, 1), (0, 1), (0, 2), (0, 1), (2, 1)]	NA	NA	NA	NA	NA	NA	NA	NA	NA	NA	NA	NA	NA	NA	NA	NA	NA	NA	NA	NA	NA	NA	NA	NA	NA	NA	NA	NA	NA	NA	NA	NA	0	0	0	0	0	5	5	393	NA	NA	NA	NA	NA	NA	NA	NA	NA	NA	NA	NA	NA	NA	NA	NA	NA	NA	NA	NA	NA	855.7472408991307	['right', 'left', 'left', 'left', 'right', 'left']	[8.817738801240921, 10.74880520068109, 12.575855101458728, 14.657000101171434, 16.653160001151264, 18.802381601184607]	aac	1	2026-06-01_13h48.46.567	SS	2023.1.0	60.1966504293597
NA	NA	NA	NA	NA	NA	NA	NA	NA	NA	NA	NA	NA	NA	NA	NA	NA	NA	NA	NA	NA	NA	NA	NA	NA	NA	NA	NA	NA	NA	NA	NA	NA	0	0	0	0	NA	NA	NA	NA	NA	NA	NA	NA	NA	NA	NA	NA	NA	NA	NA	NA	NA	NA	NA	NA	NA	NA	NA	NA	NA	NA	NA	NA	aac	1	2026-06-01_13h48.46.568	SS	2023.1.0	60.1966504293597
[(2, 2), (1, 1), (2, 1), (0, 0), (0, 2), (1, 0), (2, 2), (0, 0), (0, 1), (1, 0)]	NA	NA	NA	NA	NA	NA	NA	NA	NA	NA	NA	NA	NA	NA	NA	NA	NA	NA	NA	NA	NA	NA	NA	NA	NA	NA	NA	NA	NA	NA	NA	NA	1	0	1	0	0	0	0	197	NA	NA	NA	NA	NA	NA	NA	NA	NA	NA	NA	NA	NA	NA	NA	NA	NA	NA	NA	NA	NA	877.8954471992329	['left', 'left', 'right', 'left', 'left', 'left']	[8.587487500160933, 10.618603100068867, 12.553940900601447, 14.4731815000996, 16.5301213003695, 18.354392800480127]	aac	1	2026-06-01_13h48.46.569	SS	2023.1.0	60.1966504293597
[(1, 2), (2, 2), (0, 0), (2, 2), (1, 2), (2, 2), (0, 1), (0, 0), (2, 1), (2, 2)]	NA	NA	NA	NA	NA	NA	NA	NA	NA	NA	NA	NA	NA	NA	NA	NA	NA	NA	NA	NA	NA	NA	NA	NA	NA	NA	NA	NA	NA	NA	NA	NA	1	0	1	0	0	1	1	115	NA	NA	NA	NA	NA	NA	NA	NA	NA	NA	NA	NA	NA	NA	NA	NA	NA	NA	NA	NA	NA	898.8744294997305	['right', 'right', 'left', 'left', 'left', 'left']	[8.391850801184773, 10.362046101130545, 12.218541900627315, 14.129801500588655, 16.146969300694764, 18.25713870115578]	aac	1	2026-06-01_13h48.46.570	SS	2023.1.0	60.1966504293597
[(1, 2), (0, 2), (1, 0), (1, 2), (1, 2), (0, 2), (1, 2), (2, 2), (0, 0), (1, 2)]	NA	NA	NA	NA	NA	NA	NA	NA	NA	NA	NA	NA	NA	NA	NA	NA	NA	NA	NA	NA	NA	NA	NA	NA	NA	NA	NA	NA	NA	NA	NA	NA	1	0	1	0	0	2	2	441	NA	NA	NA	NA	NA	NA	NA	NA	NA	NA	NA	NA	NA	NA	NA	NA	NA	NA	NA	NA	NA	919.9048087997362	['right', 'right', 'left', 'left', 'left', 'right']	[8.56144320126623, 10.468540701083839, 12.693732300773263, 14.550944200716913, 16.614581600762904, 18.624236600473523]	aac	1	2026-06-01_13h48.46.571	SS	2023.1.0	60.1966504293597
[(0, 2), (1, 0), (1, 2), (0, 2), (0, 2), (2, 1), (0, 1), (0, 2), (0, 1), (2, 1)]	NA	NA	NA	NA	NA	NA	NA	NA	NA	NA	NA	NA	NA	NA	NA	NA	NA	NA	NA	NA	NA	NA	NA	NA	NA	NA	NA	NA	NA	NA	NA	NA	1	0	1	0	0	3	3	393	NA	NA	NA	NA	NA	NA	NA	NA	NA	NA	NA	NA	NA	NA	NA	NA	NA	NA	NA	NA	NA	940.871070999652	['left', 'left', 'left', 'left', 'left', 'right']	[8.349712200462818, 10.440570401027799, 12.494615701027215, 15.01877330057323, 16.598121400922537, 18.433263501152396]	aac	1	2026-06-01_13h48.46.572	SS	2023.1.0	60.1966504293597
[(1, 1), (1, 0), (2, 1), (1, 2), (1, 1), (2, 1), (1, 2), (1, 2), (0, 0), (1, 1)]	NA	NA	NA	NA	NA	NA	NA	NA	NA	NA	NA	NA	NA	NA	NA	NA	NA	NA	NA	NA	NA	NA	NA	NA	NA	NA	NA	NA	NA	NA	NA	NA	1	0	1	0	0	4	4	552	NA	NA	NA	NA	NA	NA	NA	NA	NA	NA	NA	NA	NA	NA	NA	NA	NA	NA	NA	NA	NA	961.882178899832	['right', 'left', 'left', 'left', 'left', 'right']	[8.448321601375937, 10.667984700761735, 12.668918801471591, 14.676025200635195, 16.664220700971782, 18.839423401281238]	aac	1	2026-06-01_13h48.46.573	SS	2023.1.0	60.1966504293597
[(1, 0), (1, 1), (1, 0), (2, 0), (2, 1), (1, 0), (1, 0), (2, 1), (2, 1), (2, 2)]	NA	NA	NA	NA	NA	NA	NA	NA	NA	NA	NA	NA	NA	NA	NA	NA	NA	NA	NA	NA	NA	NA	NA	NA	NA	NA	NA	NA	NA	NA	NA	NA	1	0	1	0	0	5	5	439	NA	NA	NA	NA	NA	NA	NA	NA	NA	NA	NA	NA	NA	NA	NA	NA	NA	NA	NA	NA	NA	982.8829133994876	['left', 'left', 'right', 'left', 'right', 'left']	[8.609990300610662, 10.395537500269711, 12.4582585003227, 14.591006200760603, 16.396402100101113, 18.382823700085282]	aac	1	2026-06-01_13h48.46.574	SS	2023.1.0	60.1966504293597
NA	NA	NA	NA	NA	NA	NA	NA	NA	NA	NA	NA	NA	NA	NA	NA	NA	NA	NA	NA	NA	NA	NA	NA	NA	NA	NA	NA	NA	NA	NA	NA	NA	1	0	1	0	NA	NA	NA	NA	NA	NA	NA	NA	NA	NA	NA	NA	NA	NA	NA	NA	NA	NA	NA	NA	NA	NA	NA	NA	NA	NA	NA	NA	aac	1	2026-06-01_13h48.46.575	SS	2023.1.0	60.1966504293597
