imagefile	stimfile	corrAns	MRdir	angle	training.thisRepN	training.thisTrialN	training.thisN	training.thisIndex	mentalrot_trials.thisRepN	mentalrot_trials.thisTrialN	mentalrot_trials.thisN	mentalrot_trials.thisIndex	blank.started	mr_answ_2.started	mr_answ_2.keys	mr_answ_2.corr	mr_answ_2.rt	blank.stopped	mr_answ.started	mr_answ.keys	mr_answ.corr	mr_answ.rt	byebye_text.started	byebye_text.stopped	participant	session	date	expName	psychopyVersion	frameRate
mr_images/6_b.png	mr_images/6_a_z_135.png	right	cw	135	0	0	0	164	NA	NA	NA	NA	101.486330499873	101.986373099964	left	0	4.20706810010597	NA	NA	NA	NA	NA	NA	NA	aac	1	2026-06-01_16h31.37.293	MR	2023.1.0	60.0076570632885
mr_images/11_b.png	mr_images/11_a_z_45.png	right	cw	45	0	1	1	36	NA	NA	NA	NA	106.269042999949	106.806833500043	left	0	2.67072800034657	106.806833500043	NA	NA	NA	NA	NA	NA	aac	1	2026-06-01_16h31.37.293	MR	2023.1.0	60.0076570632885
mr_images/1_b.png	mr_images/1_b_z_270.png	left	ccw	90	0	2	2	19	NA	NA	NA	NA	109.506265600212	110.086289400235	left	1	3.39966190047562	110.086289400235	NA	NA	NA	NA	NA	NA	aac	1	2026-06-01_16h31.37.293	MR	2023.1.0	60.0076570632885
mr_images/9_b.png	mr_images/9_a_z_270.png	right	ccw	90	0	3	3	210	NA	NA	NA	NA	113.518620599993	114.084876799956	left	0	2.05752350017428	114.084876799956	NA	NA	NA	NA	NA	NA	aac	1	2026-06-01_16h31.37.293	MR	2023.1.0	60.0076570632885
mr_images/3_a.png	mr_images/3_b_z_315.png	right	ccw	45	0	4	4	74	NA	NA	NA	NA	116.167738900054	116.751026700251	left	0	2.68184550013393	116.751026700251	NA	NA	NA	NA	NA	NA	aac	1	2026-06-01_16h31.37.293	MR	2023.1.0	60.0076570632885
mr_images/6_b.png	mr_images/6_b_z_135.png	left	cw	135	0,53988375433255	NA	NA	NA	0	0	0	165	124.566582700238	NA	NA	NA	NA	322.925343600102	322.925343600102	left	1	3.40976259622257	NA	NA	aac	1	2026-06-01_16h31.37.293	MR	2023.1.0	60.0076570632885
mr_images/6_a.png	mr_images/6_b_z_135.png	right	cw	135	0,311494537279941	NA	NA	NA	0	1	1	152	129.082735999953	NA	NA	NA	NA	554.407789700199	554.407789700199	left	0	2.43065000718925	NA	NA	aac	1	2026-06-01_16h31.37.293	MR	2023.1.0	60.0076570632885
mr_images/3_a.png	mr_images/3_a_z_45.png	left	cw	45	0,553676041192375	NA	NA	NA	0	2	2	73	134.598578600213	NA	NA	NA	NA	652.60988509981	652.60988509981	right	1	3.34781337452587	NA	NA	aac	1	2026-06-01_16h31.37.293	MR	2023.1.0	60.0076570632885
mr_images/5_a.png	mr_images/5_a_z_270.png	left	ccw	90	0,00941789511125535	NA	NA	NA	0	3	3	127	137.831422499847	NA	NA	NA	NA	281.767527299933	281.767527299933	right	1	2.64288088723551	NA	NA	aac	1	2026-06-01_16h31.37.293	MR	2023.1.0	60.0076570632885
mr_images/9_a.png	mr_images/9_a_z_90.png	left	cw	90	0,153479915228672	NA	NA	NA	0	4	4	197	140.364406600129	NA	NA	NA	NA	649.716100099962	649.716100099962	left	1	3.0001576746581202	NA	NA	aac	1	2026-06-01_16h31.37.293	MR	2023.1.0	60.0076570632885
mr_images/9_a.png	mr_images/9_b_z_45.png	right	cw	45	0,162353547639214	NA	NA	NA	0	5	5	192	142.980769500136	NA	NA	NA	NA	256.831312700175	256.831312700175	left	0	1.844671286433	NA	NA	aac	1	2026-06-01_16h31.37.293	MR	2023.1.0	60.0076570632885
mr_images/9_b.png	mr_images/9_b_z_270.png	left	ccw	90	0,637659948202781	NA	NA	NA	0	6	6	211	146.546983300243	NA	NA	NA	NA	580.869930199813	580.869930199813	left	1	3.26163675270509	NA	NA	aac	1	2026-06-01_16h31.37.293	MR	2023.1.0	60.0076570632885
mr_images/7_b.png	mr_images/7_a_z_135.png	right	cw	135	0,150631594355218	NA	NA	NA	0	7	7	188	150.683856099844	NA	NA	NA	NA	496.798637300264	496.798637300264	left	0	2.90040312076454	NA	NA	aac	1	2026-06-01_16h31.37.293	MR	2023.1.0	60.0076570632885
mr_images/5_b.png	mr_images/5_b_z_225.png	left	ccw	135	0,63742558110971	NA	NA	NA	0	8	8	143	154.279052800033	NA	NA	NA	NA	312.340454100166	312.340454100166	left	1	2.04526667448227	NA	NA	aac	1	2026-06-01_16h31.37.293	MR	2023.1.0	60.0076570632885
mr_images/4_b.png	mr_images/4_a_z_90.png	right	cw	90	0,584162908722647	NA	NA	NA	0	9	9	112	156.962069800124	NA	NA	NA	NA	328.022055299953	328.022055299953	left	0	3.43959572527092	NA	NA	aac	1	2026-06-01_16h31.37.293	MR	2023.1.0	60.0076570632885
mr_images/6_b.png	mr_images/6_a_z_270.png	right	ccw	90	0,493229522020556	NA	NA	NA	0	10	10	162	159.745088099968	NA	NA	NA	NA	222.78627520008	222.78627520008	left	0	3.20399735749233	NA	NA	aac	1	2026-06-01_16h31.37.293	MR	2023.1.0	60.0076570632885
mr_images/9_a.png	mr_images/9_a_z_270.png	left	ccw	90	0,219108934863471	NA	NA	NA	0	11	11	199	162.411394400056	NA	NA	NA	NA	140.880818599835	140.880818599835	left	1	2.87694971400779	NA	NA	aac	1	2026-06-01_16h31.37.293	MR	2023.1.0	60.0076570632885
mr_images/9_a.png	mr_images/9_b_z_225.png	right	ccw	135	0,741942365304567	NA	NA	NA	0	12	12	202	164.948499199934	NA	NA	NA	NA	172.94328649994	172.94328649994	left	0	2.69949793482665	NA	NA	aac	1	2026-06-01_16h31.37.293	MR	2023.1.0	60.0076570632885
mr_images/9_b.png	mr_images/9_a_z_225.png	right	ccw	135	0,20677476527635	NA	NA	NA	0	13	13	214	168.698038700037	NA	NA	NA	NA	454.487437299918	454.487437299918	left	0	2.31638290628324	NA	NA	aac	1	2026-06-01_16h31.37.293	MR	2023.1.0	60.0076570632885
mr_images/9_a.png	mr_images/9_b_z_315.png	right	ccw	45	0,0246459170011804	NA	NA	NA	0	14	14	194	172.393341400195	NA	NA	NA	NA	523.261286899913	523.261286899913	left	0	2.34374735995662	NA	NA	aac	1	2026-06-01_16h31.37.293	MR	2023.1.0	60.0076570632885
mr_images/4_a.png	mr_images/4_b_z_45.png	right	cw	45	0,870743127656169	NA	NA	NA	0	15	15	96	175.093217799906	NA	NA	NA	NA	211.408202900086	211.408202900086	left	0	3.4830373783363	NA	NA	aac	1	2026-06-01_16h31.37.293	MR	2023.1.0	60.0076570632885
mr_images/3_b.png	mr_images/3_a_z_45.png	right	cw	45	0,216112950001843	NA	NA	NA	0	16	16	84	178.463279800024	NA	NA	NA	NA	628.229939400218	628.229939400218	left	0	3.63195528846699	NA	NA	aac	1	2026-06-01_16h31.37.293	MR	2023.1.0	60.0076570632885
mr_images/6_a.png	mr_images/6_a_z_90.png	left	cw	90	0,454242396284826	NA	NA	NA	0	17	17	149	180.8755024001	NA	NA	NA	NA	436.289761899971	436.289761899971	left	1	1.54280374001246	NA	NA	aac	1	2026-06-01_16h31.37.293	MR	2023.1.0	60.0076570632885
mr_images/3_b.png	mr_images/3_b_z_270.png	left	ccw	90	0,840606146375649	NA	NA	NA	0	18	18	91	184.124894999899	NA	NA	NA	NA	598.817424000241	598.817424000241	right	0	2.34450940450187	NA	NA	aac	1	2026-06-01_16h31.37.293	MR	2023.1.0	60.0076570632885
mr_images/11_b.png	mr_images/11_a_z_270.png	right	ccw	90	0,0897242514183745	NA	NA	NA	0	19	19	42	187.591183600016	NA	NA	NA	NA	NA	135.148457500152	left	0	2.60279145112727	NA	NA	aac	1	2026-06-01_16h31.37.293	MR	2023.1.0	60.0076570632885
mr_images/11_a.png	mr_images/11_b_z_45.png	right	cw	45	0,552334407460876	NA	NA	NA	0	20	20	24	192.807096700184	NA	NA	NA	NA	639.211881000083	639.211881000083	left	0	3.73926320585888	NA	NA	aac	1	2026-06-01_16h31.37.293	MR	2023.1.0	60.0076570632885
mr_images/1_b.png	mr_images/1_a_z_45.png	right	cw	45	0,436461737728678	NA	NA	NA	0	21	21	12	195.823368700221	NA	NA	NA	NA	157.528688299935	157.528688299935	right	1	2.72433940044139	NA	NA	aac	1	2026-06-01_16h31.37.293	MR	2023.1.0	60.0076570632885
mr_images/6_b.png	mr_images/6_b_z_225.png	left	ccw	135	0,52949779026676	NA	NA	NA	0	22	22	167	198.55634339992	NA	NA	NA	NA	441.723910099827	441.723910099827	left	1	3.24856661281083	NA	NA	aac	1	2026-06-01_16h31.37.293	MR	2023.1.0	60.0076570632885
mr_images/4_a.png	mr_images/4_a_z_270.png	left	ccw	90	0,858832673053257	NA	NA	NA	0	23	23	103	202.205854199827	NA	NA	NA	NA	318.189434499946	318.189434499946	left	1	2.69098704636563	NA	NA	aac	1	2026-06-01_16h31.37.293	MR	2023.1.0	60.0076570632885
mr_images/3_a.png	mr_images/3_a_z_135.png	left	cw	135	0,669816845213063	NA	NA	NA	0	24	24	81	205.00547510013	NA	NA	NA	NA	466.619108099956	466.619108099956	left	1	1.78893916194793	NA	NA	aac	1	2026-06-01_16h31.37.293	MR	2023.1.0	60.0076570632885
mr_images/6_a.png	mr_images/6_a_z_45.png	left	cw	45	0,571144122746773	NA	NA	NA	0	25	25	145	207.47182130022	NA	NA	NA	NA	595.634637800045	595.634637800045	left	1	2.11578496803995	NA	NA	aac	1	2026-06-01_16h31.37.293	MR	2023.1.0	60.0076570632885
mr_images/7_b.png	mr_images/7_b_z_225.png	left	ccw	135	0,888781194924377	NA	NA	NA	0	26	26	191	210.858905500267	NA	NA	NA	NA	188.157781800255	188.157781800255	right	0	5.05334251706955	NA	NA	aac	1	2026-06-01_16h31.37.293	MR	2023.1.0	60.0076570632885
mr_images/6_a.png	mr_images/6_b_z_270.png	right	ccw	90	0,956912862486206	NA	NA	NA	0	27	27	150	213.608464099932	NA	NA	NA	NA	578.853548800107	578.853548800107	left	0	2.28162313636859	NA	NA	aac	1	2026-06-01_16h31.37.293	MR	2023.1.0	60.0076570632885
mr_images/11_b.png	mr_images/11_b_z_225.png	left	ccw	135	0,000615061377175152	NA	NA	NA	0	28	28	47	216.870411999989	NA	NA	NA	NA	405.944126199931	405.944126199931	left	1	1.99520599825774	NA	NA	aac	1	2026-06-01_16h31.37.293	MR	2023.1.0	60.0076570632885
mr_images/6_b.png	mr_images/6_a_z_135.png	right	cw	135	0,733433200162835	NA	NA	NA	0	29	29	164	219.85626959987	NA	NA	NA	NA	351.8350070999	351.8350070999	left	0	3.33805686084088	NA	NA	aac	1	2026-06-01_16h31.37.293	MR	2023.1.0	60.0076570632885
mr_images/12_a.png	mr_images/12_b_z_270.png	right	ccw	90	0,50579077040311	NA	NA	NA	0	30	30	54	222.236357000191	NA	NA	NA	NA	347.735690100119	347.735690100119	left	0	2.2106301335385	NA	NA	aac	1	2026-06-01_16h31.37.293	MR	2023.1.0	60.0076570632885
mr_images/4_b.png	mr_images/4_b_z_45.png	left	cw	45	0,215977382729761	NA	NA	NA	0	31	31	109	224.619414899964	NA	NA	NA	NA	438.023048200179	438.023048200179	left	1	4.20086484814529	NA	NA	aac	1	2026-06-01_16h31.37.293	MR	2023.1.0	60.0076570632885
mr_images/4_a.png	mr_images/4_a_z_225.png	left	ccw	135	0,650224118144251	NA	NA	NA	0	32	32	107	226.602465400007	NA	NA	NA	NA	513.345992099959	513.345992099959	right	0	2.88409375643824	NA	NA	aac	1	2026-06-01_16h31.37.293	MR	2023.1.0	60.0076570632885
mr_images/3_b.png	mr_images/3_a_z_135.png	right	cw	135	0,619139627669938	NA	NA	NA	0	33	33	92	228.902143899817	NA	NA	NA	NA	333.020946899895	333.020946899895	left	0	2.4997523064958	NA	NA	aac	1	2026-06-01_16h31.37.293	MR	2023.1.0	60.0076570632885
mr_images/5_b.png	mr_images/5_b_z_45.png	left	cw	45	0,467226131237112	NA	NA	NA	0	34	34	133	232.218320900109	NA	NA	NA	NA	490.332506000064	490.332506000064	left	1	1.29171590597834	NA	NA	aac	1	2026-06-01_16h31.37.293	MR	2023.1.0	60.0076570632885
mr_images/4_a.png	mr_images/4_a_z_90.png	left	cw	90	0,830034578568302	NA	NA	NA	0	35	35	101	234.022376399953	NA	NA	NA	NA	570.087981999852	570.087981999852	left	1	3.37894993496593	NA	NA	aac	1	2026-06-01_16h31.37.293	MR	2023.1.0	60.0076570632885
mr_images/7_b.png	mr_images/7_b_z_90.png	left	cw	90	0,942588894045912	NA	NA	NA	0	36	36	185	236.167800500058	NA	NA	NA	NA	642.278055900242	642.278055900242	right	0	2.43756300911774	NA	NA	aac	1	2026-06-01_16h31.37.293	MR	2023.1.0	60.0076570632885
mr_images/6_b.png	mr_images/6_b_z_315.png	left	ccw	45	0,325675835483708	NA	NA	NA	0	37	37	159	238.417460999917	NA	NA	NA	NA	511.729576500133	511.729576500133	left	1	2.19920408066828	NA	NA	aac	1	2026-06-01_16h31.37.293	MR	2023.1.0	60.0076570632885
mr_images/11_a.png	mr_images/11_b_z_90.png	right	cw	90	0,764728976762854	NA	NA	NA	0	38	38	28	242.400306200143	NA	NA	NA	NA	495.098403799813	495.098403799813	right	1	1.92989937865641	NA	NA	aac	1	2026-06-01_16h31.37.293	MR	2023.1.0	60.0076570632885
mr_images/11_a.png	mr_images/11_a_z_90.png	left	cw	90	0,739518443704583	NA	NA	NA	0	39	39	29	244.549955700059	NA	NA	NA	NA	492.884068700019	492.884068700019	right	0	2.41995724576991	NA	NA	aac	1	2026-06-01_16h31.37.293	MR	2023.1.0	60.0076570632885
mr_images/3_b.png	mr_images/3_a_z_225.png	right	ccw	135	0,885609447374009	NA	NA	NA	0	40	40	94	248.349365700036	NA	NA	NA	NA	236.717797799967	236.717797799967	right	1	2.72650609698613	NA	NA	aac	1	2026-06-01_16h31.37.293	MR	2023.1.0	60.0076570632885
mr_images/3_b.png	mr_images/3_b_z_315.png	left	ccw	45	0,93449928436894	NA	NA	NA	0	41	41	87	251.03245129995	NA	NA	NA	NA	540.60880669998	540.60880669998	left	1	1.65505162857007	NA	NA	aac	1	2026-06-01_16h31.37.293	MR	2023.1.0	60.0076570632885
mr_images/6_b.png	mr_images/6_b_z_270.png	left	ccw	90	0,150360174360685	NA	NA	NA	0	42	42	163	252.765526200179	NA	NA	NA	NA	254.865362800192	254.865362800192	left	1	2.31922578827944	NA	NA	aac	1	2026-06-01_16h31.37.293	MR	2023.1.0	60.0076570632885
mr_images/7_a.png	mr_images/7_a_z_225.png	left	ccw	135	0,199486263445579	NA	NA	NA	0	43	43	179	254.298608200159	NA	NA	NA	NA	515.87887990009	515.87887990009	left	1	1.67899401134346	NA	NA	aac	1	2026-06-01_16h31.37.293	MR	2023.1.0	60.0076570632885
mr_images/11_b.png	mr_images/11_b_z_135.png	left	cw	135	0,510261087096296	NA	NA	NA	0	44	44	45	256.28166980017	NA	NA	NA	NA	260.251343899872	260.251343899872	left	1	2.5675736888079	NA	NA	aac	1	2026-06-01_16h31.37.293	MR	2023.1.0	60.0076570632885
mr_images/3_b.png	mr_images/3_a_z_315.png	right	ccw	45	0,213849903666414	NA	NA	NA	0	45	45	86	257.89791850000603	NA	NA	NA	NA	588.769035100006	588.769035100006	left	0	1.14052232045215	NA	NA	aac	1	2026-06-01_16h31.37.293	MR	2023.1.0	60.0076570632885
mr_images/3_a.png	mr_images/3_b_z_135.png	right	cw	135	0,964409089065157	NA	NA	NA	0	46	46	80	259.718671199866	NA	NA	NA	NA	525.477785700001	525.477785700001	left	0	2.02898094963748	NA	NA	aac	1	2026-06-01_16h31.37.293	MR	2023.1.0	60.0076570632885
mr_images/6_b.png	mr_images/6_a_z_315.png	right	ccw	45	0,0953724643914029	NA	NA	NA	0	47	47	158	261.818443499971	NA	NA	NA	NA	538.642365499865	538.642365499865	right	1	1.87229315836448	NA	NA	aac	1	2026-06-01_16h31.37.293	MR	2023.1.0	60.0076570632885
mr_images/7_a.png	mr_images/7_b_z_270.png	right	ccw	90	0,304877729970031	NA	NA	NA	0	48	48	174	264.201509499922	NA	NA	NA	NA	509.113149399869	509.113149399869	right	1	3.1925262255827	NA	NA	aac	1	2026-06-01_16h31.37.293	MR	2023.1.0	60.0076570632885
mr_images/5_b.png	mr_images/5_b_z_135.png	left	cw	135	0,0398687099805102	NA	NA	NA	0	49	49	141	265.946985300165	NA	NA	NA	NA	356.167635300197	356.167635300197	left	1	3.51716978976037	NA	NA	aac	1	2026-06-01_16h31.37.293	MR	2023.1.0	60.0076570632885
mr_images/5_b.png	mr_images/5_a_z_45.png	right	cw	45	0,964379414333962	NA	NA	NA	0	50	50	132	269.563170399983	NA	NA	NA	NA	290.146603399888	290.146603399888	left	1	2.29573022227269	NA	NA	aac	1	2026-06-01_16h31.37.293	MR	2023.1.0	60.0076570632885
mr_images/7_a.png	mr_images/7_a_z_315.png	left	ccw	45	0,500583978253417	NA	NA	NA	0	51	51	171	271.279713000171	NA	NA	NA	NA	NA	462.353280200157	right	0	1.71711744877976	NA	NA	aac	1	2026-06-01_16h31.37.293	MR	2023.1.0	60.0076570632885
mr_images/12_a.png	mr_images/12_a_z_135.png	left	cw	135	0,00853791448753327	NA	NA	NA	0	52	52	57	273.17926120013	NA	NA	NA	NA	162.998711300083	162.998711300083	left	1	2.29108865058515	NA	NA	aac	1	2026-06-01_16h31.37.293	MR	2023.1.0	60.0076570632885
mr_images/5_a.png	mr_images/5_b_z_90.png	right	cw	90	0,912240950739943	NA	NA	NA	0	53	53	124	275.528988100123	NA	NA	NA	NA	485.299766700249	485.299766700249	left	0	2.06581257644575	NA	NA	aac	1	2026-06-01_16h31.37.293	MR	2023.1.0	60.0076570632885
mr_images/11_a.png	mr_images/11_a_z_270.png	left	ccw	90	0,982564069679938	NA	NA	NA	0	54	54	31	278.245283000171	NA	NA	NA	NA	429.657517900225	429.657517900225	left	0	2.50536238679197	NA	NA	aac	1	2026-06-01_16h31.37.293	MR	2023.1.0	60.0076570632885
mr_images/5_a.png	mr_images/5_a_z_45.png	left	cw	45	0,531422693631612	NA	NA	NA	0	55	55	121	281.215751499869	NA	NA	NA	NA	196.3732702001	196.3732702001	left	1	2.93391567452346	NA	NA	aac	1	2026-06-01_16h31.37.293	MR	2023.1.0	60.0076570632885
mr_images/6_a.png	mr_images/6_a_z_135.png	left	cw	135	0,457381659303792	NA	NA	NA	0	56	56	153	283.782068099827	NA	NA	NA	NA	397.111873900052	397.111873900052	left	1	2.05491447167005	NA	NA	aac	1	2026-06-01_16h31.37.293	MR	2023.1.0	60.0076570632885
mr_images/9_a.png	mr_images/9_a_z_135.png	left	cw	135	0,987211360014044	NA	NA	NA	0	57	57	201	286.444559500087	NA	NA	NA	NA	474.401550000068	474.401550000068	left	1	1.96990114522633	NA	NA	aac	1	2026-06-01_16h31.37.293	MR	2023.1.0	60.0076570632885
mr_images/1_a.png	mr_images/1_a_z_135.png	left	cw	135	0,927472625044175	NA	NA	NA	0	58	58	9	289.614590799902	NA	NA	NA	NA	251.598931000102	251.598931000102	left	1	1.70548745512497	NA	NA	aac	1	2026-06-01_16h31.37.293	MR	2023.1.0	60.0076570632885
mr_images/12_b.png	mr_images/12_a_z_270.png	right	ccw	90	0,251504856511019	NA	NA	NA	0	59	59	66	291.78094260022	NA	NA	NA	NA	314.390219499823	314.390219499823	left	1	1.52182583853137	NA	NA	aac	1	2026-06-01_16h31.37.293	MR	2023.1.0	60.0076570632885
mr_images/5_a.png	mr_images/5_a_z_90.png	left	cw	90	0,832897515618242	NA	NA	NA	0	60	60	125	293.576799999923	NA	NA	NA	NA	481.61710669985	481.61710669985	left	1	1.94211865125689	NA	NA	aac	1	2026-06-01_16h31.37.293	MR	2023.1.0	60.0076570632885
mr_images/4_a.png	mr_images/4_a_z_135.png	left	cw	135	0,271851423778571	NA	NA	NA	0	61	61	105	295.959518000018	NA	NA	NA	NA	338.122696400154	338.122696400154	left	1	2.33083031720017	NA	NA	aac	1	2026-06-01_16h31.37.293	MR	2023.1.0	60.0076570632885
mr_images/12_b.png	mr_images/12_b_z_270.png	left	ccw	90	0,359080977621488	NA	NA	NA	0	62	62	67	297.975848500151	NA	NA	NA	NA	503.563997299876	503.563997299876	left	0	1.88535489181523	NA	NA	aac	1	2026-06-01_16h31.37.293	MR	2023.1.0	60.0076570632885
mr_images/1_a.png	mr_images/1_a_z_90.png	left	cw	90	0,0518375056562945	NA	NA	NA	0	63	63	5	300.008855700027	NA	NA	NA	NA	551.723869400099	551.723869400099	left	1	2.90152233981062	NA	NA	aac	1	2026-06-01_16h31.37.293	MR	2023.1.0	60.0076570632885
mr_images/9_a.png	mr_images/9_a_z_225.png	left	ccw	135	0,784649178036489	NA	NA	NA	0	64	64	203	302.646076600067	NA	NA	NA	NA	138.414673400112	138.414673400112	left	1	2.9716790280072	NA	NA	aac	1	2026-06-01_16h31.37.293	MR	2023.1.0	60.0076570632885
mr_images/6_b.png	mr_images/6_a_z_45.png	right	cw	45	0,476905011688359	NA	NA	NA	0	65	65	156	305.191408100072	NA	NA	NA	NA	612.74880329985206	612.74880329985206	left	1	2.81542946186382	NA	NA	aac	1	2026-06-01_16h31.37.293	MR	2023.1.0	60.0076570632885
mr_images/6_a.png	mr_images/6_a_z_225.png	left	ccw	135	0,4193221925525	NA	NA	NA	0	66	66	155	307.34548150003	NA	NA	NA	NA	245.10081289988	245.10081289988	left	1	3.41713258780074	NA	NA	aac	1	2026-06-01_16h31.37.293	MR	2023.1.0	60.0076570632885
mr_images/6_b.png	mr_images/6_a_z_90.png	right	cw	90	0,140489543438889	NA	NA	NA	0	67	67	160	309.457682000008	NA	NA	NA	NA	278.79713140009	278.79713140009	left	0	2.94125884340611	NA	NA	aac	1	2026-06-01_16h31.37.293	MR	2023.1.0	60.0076570632885
mr_images/3_a.png	mr_images/3_b_z_225.png	right	ccw	135	0,270911769126542	NA	NA	NA	0	68	68	82	311.79063860001	NA	NA	NA	NA	658.359156900086	658.359156900086	left	0	2.54379888342227	NA	NA	aac	1	2026-06-01_16h31.37.293	MR	2023.1.0	60.0076570632885
mr_images/7_a.png	mr_images/7_b_z_45.png	right	cw	45	0,182706940104254	NA	NA	NA	0	69	69	168	313.840430399869	NA	NA	NA	NA	517.662152000237	517.662152000237	right	1	2.28189789701719	NA	NA	aac	1	2026-06-01_16h31.37.293	MR	2023.1.0	60.0076570632885
mr_images/9_b.png	mr_images/9_b_z_45.png	left	cw	45	0,995966553338803	NA	NA	NA	0	70	70	205	315.673471800052	NA	NA	NA	NA	258.43302270025	258.43302270025	left	1	1.81040553303901	NA	NA	aac	1	2026-06-01_16h31.37.293	MR	2023.1.0	60.0076570632885
mr_images/7_a.png	mr_images/7_a_z_270.png	left	ccw	90	0,039218902005814	NA	NA	NA	0	71	71	175	317.627379800193	NA	NA	NA	NA	646.599766400177	646.599766400177	right	0	3.08107025402133	NA	NA	aac	1	2026-06-01_16h31.37.293	MR	2023.1.0	60.0076570632885
mr_images/1_b.png	mr_images/1_a_z_135.png	right	cw	135	0,532420471892692	NA	NA	NA	0	72	72	20	320.40618930012	NA	NA	NA	NA	590.051727999933	590.051727999933	left	0	3.03519701550249	NA	NA	aac	1	2026-06-01_16h31.37.293	MR	2023.1.0	60.0076570632885
mr_images/9_a.png	mr_images/9_b_z_90.png	right	cw	90	0,411838429863565	NA	NA	NA	0	73	73	196	322.393350000028	NA	NA	NA	NA	634.795804900117	634.795804900117	left	0	4.84251622345764	NA	NA	aac	1	2026-06-01_16h31.37.293	MR	2023.1.0	60.0076570632885
mr_images/5_b.png	mr_images/5_a_z_315.png	right	ccw	45	0,585706342128106	NA	NA	NA	0	74	74	134	325.476302700117	NA	NA	NA	NA	565.872236700263	565.872236700263	left	0	2.04567863282281	NA	NA	aac	1	2026-06-01_16h31.37.293	MR	2023.1.0	60.0076570632885
mr_images/6_a.png	mr_images/6_b_z_225.png	right	ccw	135	0,94950818142388	NA	NA	NA	0	75	75	154	327.471768099815	NA	NA	NA	NA	175.679857700132	175.679857700132	left	0	3.79324805538636	NA	NA	aac	1	2026-06-01_16h31.37.293	MR	2023.1.0	60.0076570632885
mr_images/11_b.png	mr_images/11_a_z_135.png	right	cw	135	0,779113721917383	NA	NA	NA	0	76	76	44	330.604662400205	NA	NA	NA	NA	181.425224400125	181.425224400125	left	0	2.95511799615342	NA	NA	aac	1	2026-06-01_16h31.37.293	MR	2023.1.0	60.0076570632885
mr_images/5_a.png	mr_images/5_b_z_315.png	right	ccw	45	0,655267528141849	NA	NA	NA	0	77	77	122	332.458632899914	NA	NA	NA	NA	617.734689800069	617.734689800069	left	0	1.64775812530424	NA	NA	aac	1	2026-06-01_16h31.37.293	MR	2023.1.0	60.0076570632885
mr_images/12_b.png	mr_images/12_a_z_225.png	right	ccw	135	0,969632853404619	NA	NA	NA	0	78	78	70	334.987508700229	NA	NA	NA	NA	384.54732540017	384.54732540017	left	0	3.33784390261862	NA	NA	aac	1	2026-06-01_16h31.37.293	MR	2023.1.0	60.0076570632885
mr_images/6_a.png	mr_images/6_b_z_315.png	right	ccw	45	0,97887520340737	NA	NA	NA	0	79	79	146	337.570408400148	NA	NA	NA	NA	388.030326600187	388.030326600187	left	0	2.7992530278163	NA	NA	aac	1	2026-06-01_16h31.37.293	MR	2023.1.0	60.0076570632885
mr_images/1_b.png	mr_images/1_b_z_270.png	left	ccw	90	0,1048064265633	NA	NA	NA	0	80	80	19	339.807578600012	NA	NA	NA	NA	303.175078200176	303.175078200176	left	1	2.32405284426641	NA	NA	aac	1	2026-06-01_16h31.37.293	MR	2023.1.0	60.0076570632885
mr_images/11_a.png	mr_images/11_b_z_225.png	right	ccw	135	0,0210354932351038	NA	NA	NA	0	81	81	34	342.103084300179	NA	NA	NA	NA	340.354102199897	340.354102199897	right	1	2.4209003520431	NA	NA	aac	1	2026-06-01_16h31.37.293	MR	2023.1.0	60.0076570632885
mr_images/12_a.png	mr_images/12_a_z_225.png	left	ccw	135	0,47526711539831	NA	NA	NA	0	82	82	59	345.285940899979	NA	NA	NA	NA	556.69181959983	556.69181959983	left	1	1.65919164184015	NA	NA	aac	1	2026-06-01_16h31.37.293	MR	2023.1.0	60.0076570632885
mr_images/9_a.png	mr_images/9_b_z_270.png	right	ccw	90	0,395801408798434	NA	NA	NA	0	83	83	198	347.169048999902	NA	NA	NA	NA	273.728908100165	273.728908100165	left	0	2.80787459888962	NA	NA	aac	1	2026-06-01_16h31.37.293	MR	2023.1.0	60.0076570632885
mr_images/1_b.png	mr_images/1_b_z_135.png	left	cw	135	0,794765132828616	NA	NA	NA	0	84	84	21	349.252137099858	NA	NA	NA	NA	205.538695400115	205.538695400115	right	0	2.47228172610048	NA	NA	aac	1	2026-06-01_16h31.37.293	MR	2023.1.0	60.0076570632885
mr_images/3_b.png	mr_images/3_b_z_135.png	left	cw	135	0,212038477067836	NA	NA	NA	0	85	85	93	351.301764800213	NA	NA	NA	NA	644.344556500204	644.344556500204	left	1	2.09275378582533	NA	NA	aac	1	2026-06-01_16h31.37.293	MR	2023.1.0	60.0076570632885
mr_images/3_a.png	mr_images/3_a_z_315.png	left	ccw	45	0,79366409953218	NA	NA	NA	0	86	86	75	354.084839600138	NA	NA	NA	NA	592.934917000122	592.934917000122	right	0	3.13131611684803	NA	NA	aac	1	2026-06-01_16h31.37.293	MR	2023.1.0	60.0076570632885
mr_images/1_b.png	mr_images/1_a_z_90.png	right	cw	90	0,636616686242633	NA	NA	NA	0	87	87	16	355.634556100238	NA	NA	NA	NA	501.331140900031	501.331140900031	right	1	2.61105921200942	NA	NA	aac	1	2026-06-01_16h31.37.293	MR	2023.1.0	60.0076570632885
mr_images/1_a.png	mr_images/1_b_z_135.png	right	cw	135	0,873217490618117	NA	NA	NA	0	88	88	8	358.65084500005503	NA	NA	NA	NA	129.649189100135	129.649189100135	right	1	0.31931307357736	NA	NA	aac	1	2026-06-01_16h31.37.293	MR	2023.1.0	60.0076570632885
mr_images/1_b.png	mr_images/1_a_z_225.png	right	ccw	135	0,902941935346462	NA	NA	NA	0	89	89	22	360.733851000201	NA	NA	NA	NA	147.099496299867	147.099496299867	left	1	4.49289278055075	NA	NA	aac	1	2026-06-01_16h31.37.293	MR	2023.1.0	60.0076570632885
mr_images/7_a.png	mr_images/7_b_z_135.png	right	cw	135	0,0984092483995482	NA	NA	NA	0	90	90	176	362.66683460027	NA	NA	NA	NA	623.035304199904	623.035304199904	left	0	1.34293134666514	NA	NA	aac	1	2026-06-01_16h31.37.293	MR	2023.1.0	60.0076570632885
mr_images/12_a.png	mr_images/12_a_z_90.png	left	cw	90	0,545125425443985	NA	NA	NA	0	91	91	53	364.966697699856	NA	NA	NA	NA	390.46318460023	390.46318460023	left	1	3.77437936339993	NA	NA	aac	1	2026-06-01_16h31.37.293	MR	2023.1.0	60.0076570632885
mr_images/9_b.png	mr_images/9_b_z_90.png	left	cw	90	0,730226118466817	NA	NA	NA	0	92	92	209	368.066216900013	NA	NA	NA	NA	160.295466899872	160.295466899872	left	1	2.90518188916612	NA	NA	aac	1	2026-06-01_16h31.37.293	MR	2023.1.0	60.0076570632885
mr_images/9_b.png	mr_images/9_a_z_315.png	right	ccw	45	0,945751138380729	NA	NA	NA	0	93	93	206	371.799095300026	NA	NA	NA	NA	619.181423900183	619.181423900183	left	0	1.40420173250605	NA	NA	aac	1	2026-06-01_16h31.37.293	MR	2023.1.0	60.0076570632885
mr_images/12_b.png	mr_images/12_a_z_90.png	right	cw	90	0,557626127148978	NA	NA	NA	0	94	94	64	374.448606099933	NA	NA	NA	NA	448.938164900057	448.938164900057	left	0	1.50774461908732	NA	NA	aac	1	2026-06-01_16h31.37.293	MR	2023.1.0	60.0076570632885
mr_images/1_a.png	mr_images/1_b_z_225.png	right	ccw	135	0,727618391974829	NA	NA	NA	0	95	95	10	377.54826059984	NA	NA	NA	NA	469.335346200038	469.335346200038	left	0	3.11475790638942	NA	NA	aac	1	2026-06-01_16h31.37.293	MR	2023.1.0	60.0076570632885
mr_images/6_b.png	mr_images/6_b_z_90.png	left	cw	90	0,677823311765678	NA	NA	NA	0	96	96	161	381.014333799947	NA	NA	NA	NA	597.500973899849	597.500973899849	left	0	2.01751408854033	NA	NA	aac	1	2026-06-01_16h31.37.293	MR	2023.1.0	60.0076570632885
mr_images/1_a.png	mr_images/1_a_z_45.png	left	cw	45	0,665181939839385	NA	NA	NA	0	97	97	1	383.980567799881	NA	NA	NA	NA	544.143974199891	544.143974199891	left	1	3.88939159505535	NA	NA	aac	1	2026-06-01_16h31.37.293	MR	2023.1.0	60.0076570632885
mr_images/7_a.png	mr_images/7_a_z_135.png	left	cw	135	0,430706204031594	NA	NA	NA	0	98	98	177	387.463485800196	NA	NA	NA	NA	471.868077000137	471.868077000137	left	1	2.59511663245502	NA	NA	aac	1	2026-06-01_16h31.37.293	MR	2023.1.0	60.0076570632885
mr_images/3_a.png	mr_images/3_b_z_315.png	right	ccw	45	0,428390991990455	NA	NA	NA	0	99	99	74	389.91305470001	NA	NA	NA	NA	575.837322100066	575.837322100066	left	0	1.59871040608268	NA	NA	aac	1	2026-06-01_16h31.37.293	MR	2023.1.0	60.0076570632885
mr_images/7_b.png	mr_images/7_a_z_45.png	right	cw	45	0,296776646864601	NA	NA	NA	0	100	100	180	393.945944600273	NA	NA	NA	NA	476.434864799958	476.434864799958	right	1	1.49514195236842	NA	NA	aac	1	2026-06-01_16h31.37.293	MR	2023.1.0	60.0076570632885
mr_images/7_a.png	mr_images/7_b_z_225.png	right	ccw	135	0,0323123153066263	NA	NA	NA	0	101	101	178	396.578806499951	NA	NA	NA	NA	620.44776479993	620.44776479993	left	0	2.4685064421733802	NA	NA	aac	1	2026-06-01_16h31.37.293	MR	2023.1.0	60.0076570632885
mr_images/4_a.png	mr_images/4_a_z_45.png	left	cw	45	0,280857948469929	NA	NA	NA	0	102	102	97	398.745119200088	NA	NA	NA	NA	491.354567599949	491.354567599949	left	1	1.75357533546631	NA	NA	aac	1	2026-06-01_16h31.37.293	MR	2023.1.0	60.0076570632885
mr_images/4_b.png	mr_images/4_b_z_270.png	left	ccw	90	0,924916000454687	NA	NA	NA	0	103	103	115	400.6449231999	NA	NA	NA	NA	547.857774199918	547.857774199918	left	1	2.29922164997552	NA	NA	aac	1	2026-06-01_16h31.37.293	MR	2023.1.0	60.0076570632885
mr_images/12_b.png	mr_images/12_b_z_315.png	left	ccw	45	0,700446101953276	NA	NA	NA	0	104	104	63	402.277991900221	NA	NA	NA	NA	488.949308100157	488.949308100157	left	1	1.80427158933598	NA	NA	aac	1	2026-06-01_16h31.37.293	MR	2023.1.0	60.0076570632885
mr_images/3_b.png	mr_images/3_a_z_270.png	right	ccw	90	0,65702321997378	NA	NA	NA	0	105	105	90	405.415981300175	NA	NA	NA	NA	563.505673599895	563.505673599895	left	0	3.18990081732626	NA	NA	aac	1	2026-06-01_16h31.37.293	MR	2023.1.0	60.0076570632885
mr_images/5_b.png	mr_images/5_a_z_135.png	right	cw	135	0,508535519824363	NA	NA	NA	0	106	106	140	407.160968400072	NA	NA	NA	NA	365.533134399913	365.533134399913	left	0	2.70673926703166	NA	NA	aac	1	2026-06-01_16h31.37.293	MR	2023.1.0	60.0076570632885
mr_images/4_a.png	mr_images/4_b_z_270.png	right	ccw	90	0,731223876937293	NA	NA	NA	0	107	107	102	409.66030099988	NA	NA	NA	NA	266.496602400206	266.496602400206	left	0	3.91988348911982	NA	NA	aac	1	2026-06-01_16h31.37.293	MR	2023.1.0	60.0076570632885
mr_images/12_a.png	mr_images/12_b_z_135.png	right	cw	135	0,343953304807656	NA	NA	NA	0	108	108	56	412.593340999912	NA	NA	NA	NA	507.46363400016	507.46363400016	left	0	1.81605532604734	NA	NA	aac	1	2026-06-01_16h31.37.293	MR	2023.1.0	60.0076570632885
mr_images/4_a.png	mr_images/4_b_z_135.png	right	cw	135	0,172074102214538	NA	NA	NA	0	109	109	104	415.263887499925	NA	NA	NA	NA	421.975554599892	421.975554599892	left	0	2.37810130061116	NA	NA	aac	1	2026-06-01_16h31.37.293	MR	2023.1.0	60.0076570632885
mr_images/5_a.png	mr_images/5_b_z_45.png	right	cw	45	0,0825403233757243	NA	NA	NA	0	110	110	120	418.475787000265	NA	NA	NA	NA	410.210912500042	410.210912500042	right	1	2.90530814623926	NA	NA	aac	1	2026-06-01_16h31.37.293	MR	2023.1.0	60.0076570632885
mr_images/4_b.png	mr_images/4_b_z_135.png	left	cw	135	0,804354276158847	NA	NA	NA	0	111	111	117	421.429598300252	NA	NA	NA	NA	184.69160469994	184.69160469994	right	0	3.86929474479984	NA	NA	aac	1	2026-06-01_16h31.37.293	MR	2023.1.0	60.0076570632885
mr_images/7_b.png	mr_images/7_a_z_90.png	right	cw	90	0,170428703888319	NA	NA	NA	0	112	112	184	424.108134800103	NA	NA	NA	NA	584.023232799955	584.023232799955	right	1	3.67135082094464	NA	NA	aac	1	2026-06-01_16h31.37.293	MR	2023.1.0	60.0076570632885
mr_images/9_b.png	mr_images/9_b_z_225.png	left	ccw	135	0,316127630998381	NA	NA	NA	0	113	113	215	425.958144600038	NA	NA	NA	NA	NA	527.593904600013	left	1	2.9754221416777	NA	NA	aac	1	2026-06-01_16h31.37.293	MR	2023.1.0	60.0076570632885
mr_images/1_b.png	mr_images/1_a_z_270.png	right	ccw	90	0,0598595024785027	NA	NA	NA	0	114	114	18	429.124429699965	NA	NA	NA	NA	499.06465259986	499.06465259986	left	0	1.87053775691893	NA	NA	aac	1	2026-06-01_16h31.37.293	MR	2023.1.0	60.0076570632885
mr_images/4_b.png	mr_images/4_b_z_315.png	left	ccw	45	0,0558835089905188	NA	NA	NA	0	115	115	111	431.590621000156	NA	NA	NA	NA	447.321753399912	447.321753399912	left	1	1.18793636716437	NA	NA	aac	1	2026-06-01_16h31.37.293	MR	2023.1.0	60.0076570632885
mr_images/9_b.png	mr_images/9_a_z_45.png	right	cw	45	0,634905986604281	NA	NA	NA	0	116	116	204	433.694609799888	NA	NA	NA	NA	307.890995000023	307.890995000023	left	0	2.70730561425443	NA	NA	aac	1	2026-06-01_16h31.37.293	MR	2023.1.0	60.0076570632885
mr_images/12_b.png	mr_images/12_a_z_45.png	right	cw	45	0,851359539083205	NA	NA	NA	0	117	117	60	435.756745500024	NA	NA	NA	NA	264.78047550004	264.78047550004	left	0	2.08024858508725	NA	NA	aac	1	2026-06-01_16h31.37.293	MR	2023.1.0	60.0076570632885
mr_images/3_a.png	mr_images/3_a_z_270.png	left	ccw	90	0,812456939020194	NA	NA	NA	0	118	118	79	437.489964900073	NA	NA	NA	NA	426.508202100173	426.508202100173	left	0	2.94596756866668	NA	NA	aac	1	2026-06-01_16h31.37.293	MR	2023.1.0	60.0076570632885
mr_images/12_a.png	mr_images/12_b_z_90.png	right	cw	90	0,663164336350747	NA	NA	NA	0	119	119	52	441.206285499968	NA	NA	NA	NA	225.169319500215	225.169319500215	left	0	2.37097219105344	NA	NA	aac	1	2026-06-01_16h31.37.293	MR	2023.1.0	60.0076570632885
mr_images/11_a.png	mr_images/11_a_z_225.png	left	ccw	135	0,110486948746257	NA	NA	NA	0	120	120	35	444.7555455002	NA	NA	NA	NA	368.599335600156	368.599335600156	right	0	4.25823311160784	NA	NA	aac	1	2026-06-01_16h31.37.293	MR	2023.1.0	60.0076570632885
mr_images/5_a.png	mr_images/5_a_z_315.png	left	ccw	45	0,0721624040743336	NA	NA	NA	0	121	121	123	446.755253700074	NA	NA	NA	NA	624.763975299895	624.763975299895	left	1	3.46148166803177	NA	NA	aac	1	2026-06-01_16h31.37.293	MR	2023.1.0	60.0076570632885
mr_images/9_a.png	mr_images/9_b_z_135.png	right	cw	135	0,0952236630255356	NA	NA	NA	0	122	122	200	448.404914900195	NA	NA	NA	NA	483.435905400198	483.435905400198	left	1	1.57324787655379	NA	NA	aac	1	2026-06-01_16h31.37.293	MR	2023.1.0	60.0076570632885
mr_images/3_b.png	mr_images/3_b_z_225.png	left	ccw	135	0,298150015878491	NA	NA	NA	0	123	123	95	450.121892400086	NA	NA	NA	NA	227.185906799976	227.185906799976	left	1	1.65753488207702	NA	NA	aac	1	2026-06-01_16h31.37.293	MR	2023.1.0	60.0076570632885
mr_images/4_b.png	mr_images/4_a_z_135.png	right	cw	135	0,415308806230314	NA	NA	NA	0	124	124	116	451.438024000265	NA	NA	NA	NA	505.130347399972	505.130347399972	left	0	2.2851022419287	NA	NA	aac	1	2026-06-01_16h31.37.293	MR	2023.1.0	60.0076570632885
mr_images/6_b.png	mr_images/6_b_z_45.png	left	cw	45	0,918199803330936	NA	NA	NA	0	125	125	157	453.954324999824	NA	NA	NA	NA	316.227847100236	316.227847100236	left	1	2.16329310096335	NA	NA	aac	1	2026-06-01_16h31.37.293	MR	2023.1.0	60.0076570632885
mr_images/12_a.png	mr_images/12_a_z_270.png	left	ccw	90	0,503721305751242	NA	NA	NA	0	126	126	55	456.287258400116	NA	NA	NA	NA	381.547554399818	381.547554399818	left	1	2.70766716829967	NA	NA	aac	1	2026-06-01_16h31.37.293	MR	2023.1.0	60.0076570632885
mr_images/1_b.png	mr_images/1_b_z_90.png	left	cw	90	0,422242825035937	NA	NA	NA	0	127	127	17	460.137107899878	NA	NA	NA	NA	300.528063499834	300.528063499834	left	1	2.57174059592653	NA	NA	aac	1	2026-06-01_16h31.37.293	MR	2023.1.0	60.0076570632885
mr_images/4_a.png	mr_images/4_b_z_225.png	right	ccw	135	0,109859521617182	NA	NA	NA	0	128	128	106	461.807367899921	NA	NA	NA	NA	151.22965170024	151.22965170024	right	1	3.68198166012298	NA	NA	aac	1	2026-06-01_16h31.37.293	MR	2023.1.0	60.0076570632885
mr_images/9_a.png	mr_images/9_a_z_315.png	left	ccw	45	0,70251212536823	NA	NA	NA	0	129	129	195	463.586595000234	NA	NA	NA	NA	305.73057120014	305.73057120014	left	0	2.27652134767268	NA	NA	aac	1	2026-06-01_16h31.37.293	MR	2023.1.0	60.0076570632885
mr_images/5_a.png	mr_images/5_a_z_135.png	left	cw	135	0,299392977845855	NA	NA	NA	0	130	130	129	466.069263999816	NA	NA	NA	NA	536.759579400066	536.759579400066	left	1	1.82785391018261	NA	NA	aac	1	2026-06-01_16h31.37.293	MR	2023.1.0	60.0076570632885
mr_images/7_b.png	mr_images/7_b_z_270.png	left	ccw	90	0,587850221549161	NA	NA	NA	0	131	131	187	467.335637500044	NA	NA	NA	NA	248.916012300178	248.916012300178	left	0	2.80574817007874	NA	NA	aac	1	2026-06-01_16h31.37.293	MR	2023.1.0	60.0076570632885
mr_images/4_b.png	mr_images/4_b_z_90.png	left	cw	90	0,33814718935173	NA	NA	NA	0	132	132	113	468.802125200164	NA	NA	NA	NA	464.119484799914	464.119484799914	left	0	2.2770222885767	NA	NA	aac	1	2026-06-01_16h31.37.293	MR	2023.1.0	60.0076570632885
mr_images/7_b.png	mr_images/7_a_z_225.png	right	ccw	135	0,622196629992686	NA	NA	NA	0	133	133	190	471.318552399986	NA	NA	NA	NA	487.072331900243	487.072331900243	left	0	1.37367497810628	NA	NA	aac	1	2026-06-01_16h31.37.293	MR	2023.1.0	60.0076570632885
mr_images/11_b.png	mr_images/11_b_z_90.png	left	cw	90	0,733920705621131	NA	NA	NA	0	134	134	41	473.868119500112	NA	NA	NA	NA	601.217278200202	601.217278200202	left	0	3.87183153706137	NA	NA	aac	1	2026-06-01_16h31.37.293	MR	2023.1.0	60.0076570632885
mr_images/1_a.png	mr_images/1_b_z_45.png	right	cw	45	0,641070677549578	NA	NA	NA	0	135	135	0	475.917790200096	NA	NA	NA	NA	479.217651000246	479.217651000246	left	0	2.6226059973007	NA	NA	aac	1	2026-06-01_16h31.37.293	MR	2023.1.0	60.0076570632885
mr_images/7_a.png	mr_images/7_b_z_90.png	right	cw	90	0,778541676816531	NA	NA	NA	0	136	136	172	477.500997399911	NA	NA	NA	NA	542.425156800076	542.425156800076	left	0	1.85105482714716	NA	NA	aac	1	2026-06-01_16h31.37.293	MR	2023.1.0	60.0076570632885
mr_images/5_a.png	mr_images/5_b_z_270.png	right	ccw	90	0,753011974389665	NA	NA	NA	0	137	137	126	478.667528099846	NA	NA	NA	NA	262.369301199913	262.369301199913	left	0	2.85078041602391	NA	NA	aac	1	2026-06-01_16h31.37.293	MR	2023.1.0	60.0076570632885
mr_images/11_a.png	mr_images/11_b_z_135.png	right	cw	135	0,972994568641298	NA	NA	NA	0	138	138	32	481.083739799913	NA	NA	NA	NA	208.043366100173	208.043366100173	left	0	3.26014359395486	NA	NA	aac	1	2026-06-01_16h31.37.293	MR	2023.1.0	60.0076570632885
mr_images/11_b.png	mr_images/11_a_z_225.png	right	ccw	135	0,578544739983045	NA	NA	NA	0	139	139	46	482.883886000142	NA	NA	NA	NA	202.759616900235	202.759616900235	right	1	2.91702427587007	NA	NA	aac	1	2026-06-01_16h31.37.293	MR	2023.1.0	60.0076570632885
mr_images/3_b.png	mr_images/3_b_z_90.png	left	cw	90	0,0832055563805625	NA	NA	NA	0	140	140	89	484.770780700259	NA	NA	NA	NA	451.971176200081	451.971176200081	left	1	2.73216378118377	NA	NA	aac	1	2026-06-01_16h31.37.293	MR	2023.1.0	60.0076570632885
mr_images/9_b.png	mr_images/9_b_z_135.png	left	cw	135	0,832402920466848	NA	NA	NA	0	141	141	213	486.516408800148	NA	NA	NA	NA	530.243621599861	530.243621599861	left	1	2.72403435830493	NA	NA	aac	1	2026-06-01_16h31.37.293	MR	2023.1.0	60.0076570632885
mr_images/9_a.png	mr_images/9_a_z_45.png	left	cw	45	0,625726578640752	NA	NA	NA	0	142	142	193	488.42038499983	NA	NA	NA	NA	320.943297300022	320.943297300022	left	1	1.97633321864996	NA	NA	aac	1	2026-06-01_16h31.37.293	MR	2023.1.0	60.0076570632885
mr_images/12_a.png	mr_images/12_a_z_45.png	left	cw	45	0,0165891606593505	NA	NA	NA	0	143	143	49	489.799232600257	NA	NA	NA	NA	549.957564999815	549.957564999815	left	1	2.6562061831588	NA	NA	aac	1	2026-06-01_16h31.37.293	MR	2023.1.0	60.0076570632885
mr_images/4_b.png	mr_images/4_b_z_225.png	left	ccw	135	0,49467628414277	NA	NA	NA	0	144	144	119	490.816142499913	NA	NA	NA	NA	NA	125.083028799854	right	0	4.87582732436713	NA	NA	aac	1	2026-06-01_16h31.37.293	MR	2023.1.0	60.0076570632885
mr_images/11_b.png	mr_images/11_b_z_45.png	left	cw	45	0,0320517028449103	NA	NA	NA	0	145	145	37	492.353151900228	NA	NA	NA	NA	199.122934100218	199.122934100218	left	1	4.38507525331806	NA	NA	aac	1	2026-06-01_16h31.37.293	MR	2023.1.0	60.0076570632885
mr_images/1_a.png	mr_images/1_a_z_315.png	left	ccw	45	0,149844412342645	NA	NA	NA	0	146	146	3	494.536250100005	NA	NA	NA	NA	604.46875349991	604.46875349991	right	0	4.67817121467087	NA	NA	aac	1	2026-06-01_16h31.37.293	MR	2023.1.0	60.0076570632885
mr_images/7_b.png	mr_images/7_a_z_315.png	right	ccw	45	0,258505080710165	NA	NA	NA	0	147	147	182	496.265016200021	NA	NA	NA	NA	378.098410999868	378.098410999868	left	0	3.44973396796268	NA	NA	aac	1	2026-06-01_16h31.37.293	MR	2023.1.0	60.0076570632885
mr_images/7_b.png	mr_images/7_a_z_270.png	right	ccw	90	0,584789193817414	NA	NA	NA	0	148	148	186	498.531412700191	NA	NA	NA	NA	577.587106800173	577.587106800173	left	0	1.43314146234188	NA	NA	aac	1	2026-06-01_16h31.37.293	MR	2023.1.0	60.0076570632885
mr_images/5_a.png	mr_images/5_b_z_225.png	right	ccw	135	0,817946305847727	NA	NA	NA	0	149	149	130	500.764461200219	NA	NA	NA	NA	424.641695300117	424.641695300117	left	0	2.52386933171656	NA	NA	aac	1	2026-06-01_16h31.37.293	MR	2023.1.0	60.0076570632885
mr_images/7_b.png	mr_images/7_b_z_315.png	left	ccw	45	0,0261734473751858	NA	NA	NA	0	150	150	183	503.030697300099	NA	NA	NA	NA	326.038603099994	326.038603099994	left	1	2.13246445141267	NA	NA	aac	1	2026-06-01_16h31.37.293	MR	2023.1.0	60.0076570632885
mr_images/11_a.png	mr_images/11_b_z_270.png	right	ccw	90	0,23714619607199	NA	NA	NA	0	151	151	30	504.597221999895	NA	NA	NA	NA	520.028418600094	520.028418600094	left	0	3.67100260520819	NA	NA	aac	1	2026-06-01_16h31.37.293	MR	2023.1.0	60.0076570632885
mr_images/5_b.png	mr_images/5_a_z_225.png	right	ccw	135	0,796023007365875	NA	NA	NA	0	152	152	142	506.930172599852	NA	NA	NA	NA	434.208470900077	434.208470900077	left	0	1.7683176835766	NA	NA	aac	1	2026-06-01_16h31.37.293	MR	2023.1.0	60.0076570632885
mr_images/12_b.png	mr_images/12_b_z_45.png	left	cw	45	0,795900731231086	NA	NA	NA	0	153	153	61	508.580043700058	NA	NA	NA	NA	478.034216300119	478.034216300119	left	1	1.58733030979055	NA	NA	aac	1	2026-06-01_16h31.37.293	MR	2023.1.0	60.0076570632885
mr_images/3_a.png	mr_images/3_b_z_270.png	right	ccw	90	0,0038611659547314	NA	NA	NA	0	154	154	78	511.196323700249	NA	NA	NA	NA	276.095898400061	276.095898400061	left	0	3.24067405706737	NA	NA	aac	1	2026-06-01_16h31.37.293	MR	2023.1.0	60.0076570632885
mr_images/6_b.png	mr_images/6_a_z_225.png	right	ccw	135	0,261205238639377	NA	NA	NA	0	155	155	166	512.812797700055	NA	NA	NA	NA	456.820452400018	456.820452400018	left	0	3.98843134271447	NA	NA	aac	1	2026-06-01_16h31.37.293	MR	2023.1.0	60.0076570632885
mr_images/7_b.png	mr_images/7_b_z_45.png	left	cw	45	0,514660696149804	NA	NA	NA	0	156	156	181	515.345723100007	NA	NA	NA	NA	154.845764200203	154.845764200203	left	1	2.8818934925599	NA	NA	aac	1	2026-06-01_16h31.37.293	MR	2023.1.0	60.0076570632885
mr_images/1_b.png	mr_images/1_b_z_225.png	left	ccw	135	0,599386898684315	NA	NA	NA	0	157	157	23	517.128750000149	NA	NA	NA	NA	402.834058700129	402.834058700129	right	0	3.14093063224573	NA	NA	aac	1	2026-06-01_16h31.37.293	MR	2023.1.0	60.0076570632885
mr_images/1_b.png	mr_images/1_a_z_315.png	right	ccw	45	0,397458659601398	NA	NA	NA	0	158	158	14	519.49527399987	NA	NA	NA	NA	660.892165299971	660.892165299971	left	1	1.34997203683014	NA	NA	aac	1	2026-06-01_16h31.37.293	MR	2023.1.0	60.0076570632885
mr_images/11_a.png	mr_images/11_b_z_315.png	right	ccw	45	0,752079253434204	NA	NA	NA	0	159	159	26	522.728053099942	NA	NA	NA	NA	450.654626300093	450.654626300093	left	1	1.67075865839142	NA	NA	aac	1	2026-06-01_16h31.37.293	MR	2023.1.0	60.0076570632885
mr_images/12_a.png	mr_images/12_b_z_225.png	right	ccw	135	0,144849279546179	NA	NA	NA	0	160	160	58	524.911036300007	NA	NA	NA	NA	286.997568199877	286.997568199877	left	0	3.28833617030178	NA	NA	aac	1	2026-06-01_16h31.37.293	MR	2023.1.0	60.0076570632885
mr_images/7_a.png	mr_images/7_a_z_90.png	left	cw	90	0,0112364202504978	NA	NA	NA	0	161	161	173	527.060736699961	NA	NA	NA	NA	608.615855200216	608.615855200216	right	1	4.76584583658259	NA	NA	aac	1	2026-06-01_16h31.37.293	MR	2023.1.0	60.0076570632885
mr_images/11_a.png	mr_images/11_a_z_135.png	left	cw	135	0,969923297525384	NA	NA	NA	0	162	162	33	529.710372100119	NA	NA	NA	NA	631.279876200017	631.279876200017	left	1	3.20747924523894	NA	NA	aac	1	2026-06-01_16h31.37.293	MR	2023.1.0	60.0076570632885
mr_images/1_b.png	mr_images/1_b_z_315.png	left	ccw	45	0,00868569023441523	NA	NA	NA	0	163	163	15	532.593362600077	NA	NA	NA	NA	418.998388899956	418.998388899956	left	1	3.51237682045903	NA	NA	aac	1	2026-06-01_16h31.37.293	MR	2023.1.0	60.0076570632885
mr_images/3_a.png	mr_images/3_a_z_90.png	left	cw	90	0,230293382774107	NA	NA	NA	0	164	164	77	536.226186499931	NA	NA	NA	NA	533.160229400266	533.160229400266	right	0	4.05540901545901	NA	NA	aac	1	2026-06-01_16h31.37.293	MR	2023.1.0	60.0076570632885
mr_images/5_a.png	mr_images/5_b_z_135.png	right	cw	135	0,84857369994279	NA	NA	NA	0	165	165	128	538.10920510022	NA	NA	NA	NA	331.160638100002	331.160638100002	left	0	2.25607027660589	NA	NA	aac	1	2026-06-01_16h31.37.293	MR	2023.1.0	60.0076570632885
mr_images/9_b.png	mr_images/9_a_z_90.png	right	cw	90	0,481665875413455	NA	NA	NA	0	166	166	208	540.075627900194	NA	NA	NA	NA	165.514808299951	165.514808299951	right	0	3.52161292054225	NA	NA	aac	1	2026-06-01_16h31.37.293	MR	2023.1.0	60.0076570632885
mr_images/1_a.png	mr_images/1_b_z_315.png	right	ccw	45	0,34833896078635	NA	NA	NA	0	167	167	2	541.875362900086	NA	NA	NA	NA	298.525709399954	298.525709399954	left	0	2.57554995671381	NA	NA	aac	1	2026-06-01_16h31.37.293	MR	2023.1.0	60.0076570632885
mr_images/12_b.png	mr_images/12_b_z_90.png	left	cw	90	0,66540837904904	NA	NA	NA	0	168	168	65	543.625126600266	NA	NA	NA	NA	345.819198499899	345.819198499899	left	1	2.34475703730713	NA	NA	aac	1	2026-06-01_16h31.37.293	MR	2023.1.0	60.0076570632885
mr_images/4_a.png	mr_images/4_a_z_315.png	left	ccw	45	0,0299386152764782	NA	NA	NA	0	169	169	99	547.328830900136	NA	NA	NA	NA	614.998403099831	614.998403099831	right	0	2.69773392931092	NA	NA	aac	1	2026-06-01_16h31.37.293	MR	2023.1.0	60.0076570632885
mr_images/12_b.png	mr_images/12_a_z_135.png	right	cw	135	0,638890280504711	NA	NA	NA	0	170	170	68	549.424333900213	NA	NA	NA	NA	309.990802799817	309.990802799817	left	0	2.58232511139941	NA	NA	aac	1	2026-06-01_16h31.37.293	MR	2023.1.0	60.0076570632885
mr_images/12_a.png	mr_images/12_b_z_45.png	right	cw	45	0,305753939668648	NA	NA	NA	0	171	171	48	551.190764899831	NA	NA	NA	NA	271.846192900091	271.846192900091	right	1	1.99466183639597	NA	NA	aac	1	2026-06-01_16h31.37.293	MR	2023.1.0	60.0076570632885
mr_images/7_a.png	mr_images/7_a_z_45.png	left	cw	45	0,00405115715693682	NA	NA	NA	0	172	172	169	553.877826299984	NA	NA	NA	NA	460.689503700007	460.689503700007	left	1	1.14377495513763	NA	NA	aac	1	2026-06-01_16h31.37.293	MR	2023.1.0	60.0076570632885
mr_images/12_a.png	mr_images/12_a_z_315.png	left	ccw	45	0,33289674075786	NA	NA	NA	0	173	173	51	556.157486100216	NA	NA	NA	NA	234.58461710019	234.58461710019	left	0	2.80067436106038	NA	NA	aac	1	2026-06-01_16h31.37.293	MR	2023.1.0	60.0076570632885
mr_images/6_a.png	mr_images/6_a_z_315.png	left	ccw	45	0,47694838361349	NA	NA	NA	0	174	174	147	557.494117500261	NA	NA	NA	NA	394.513001199812	394.513001199812	left	1	2.32318737728055	NA	NA	aac	1	2026-06-01_16h31.37.293	MR	2023.1.0	60.0076570632885
mr_images/6_a.png	mr_images/6_b_z_45.png	right	cw	45	0,787040761555545	NA	NA	NA	0	175	175	144	560.810288799927	NA	NA	NA	NA	359.184069499839	359.184069499839	right	1	2.10432360374835	NA	NA	aac	1	2026-06-01_16h31.37.293	MR	2023.1.0	60.0076570632885
mr_images/3_a.png	mr_images/3_b_z_90.png	right	cw	90	0,478254368179478	NA	NA	NA	0	176	176	76	562.972454800271	NA	NA	NA	NA	445.322041400243	445.322041400243	left	0	2.44059417259414	NA	NA	aac	1	2026-06-01_16h31.37.293	MR	2023.1.0	60.0076570632885
mr_images/3_b.png	mr_images/3_b_z_45.png	left	cw	45	0,564608730957843	NA	NA	NA	0	177	177	85	565.305352999829	NA	NA	NA	NA	558.02548710024	558.02548710024	right	0	3.18308962362353	NA	NA	aac	1	2026-06-01_16h31.37.293	MR	2023.1.0	60.0076570632885
mr_images/7_a.png	mr_images/7_b_z_315.png	right	ccw	45	0,915508335107006	NA	NA	NA	0	178	178	170	566.938621100038	NA	NA	NA	NA	354.651357300114	354.651357300114	left	0	2.05832260830793	NA	NA	aac	1	2026-06-01_16h31.37.293	MR	2023.1.0	60.0076570632885
mr_images/4_b.png	mr_images/4_a_z_225.png	right	ccw	135	0,530931436107494	NA	NA	NA	0	179	179	118	569.554856200237	NA	NA	NA	NA	415.826048200019	415.826048200019	left	1	3.28404052548576	NA	NA	aac	1	2026-06-01_16h31.37.293	MR	2023.1.0	60.0076570632885
mr_images/9_b.png	mr_images/9_a_z_135.png	right	cw	135	0,848248715163209	NA	NA	NA	0	180	180	212	572.637671399862	NA	NA	NA	NA	294.143243100029	294.143243100029	left	0	2.83267521054949	NA	NA	aac	1	2026-06-01_16h31.37.293	MR	2023.1.0	60.0076570632885
mr_images/4_b.png	mr_images/4_a_z_315.png	right	ccw	45	0,874957291525789	NA	NA	NA	0	181	181	110	575.304180900101	NA	NA	NA	NA	467.886977599934	467.886977599934	left	0	1.82402809492778	NA	NA	aac	1	2026-06-01_16h31.37.293	MR	2023.1.0	60.0076570632885
mr_images/11_a.png	mr_images/11_a_z_315.png	left	ccw	45	0,530394226894714	NA	NA	NA	0	182	182	27	577.020525199827	NA	NA	NA	NA	292.310432699975	292.310432699975	right	0	2.53137820193078	NA	NA	aac	1	2026-06-01_16h31.37.293	MR	2023.1.0	60.0076570632885
mr_images/11_a.png	mr_images/11_a_z_45.png	left	cw	45	0,186846464523114	NA	NA	NA	0	183	183	25	578.320173399989	NA	NA	NA	NA	573.170977199916	573.170977199916	left	1	2.50691574446392	NA	NA	aac	1	2026-06-01_16h31.37.293	MR	2023.1.0	60.0076570632885
mr_images/7_b.png	mr_images/7_b_z_135.png	left	cw	135	0,807369109825231	NA	NA	NA	0	184	184	189	580.336709400173	NA	NA	NA	NA	561.372655800078	561.372655800078	left	0	2.68331091336441	NA	NA	aac	1	2026-06-01_16h31.37.293	MR	2023.1.0	60.0076570632885
mr_images/12_b.png	mr_images/12_a_z_315.png	right	ccw	45	0,186170663801022	NA	NA	NA	0	185	185	62	583.469608699903	NA	NA	NA	NA	363.200168100186	363.200168100186	left	0	2.75079495485406	NA	NA	aac	1	2026-06-01_16h31.37.293	MR	2023.1.0	60.0076570632885
mr_images/5_b.png	mr_images/5_b_z_90.png	left	cw	90	0,49400748021435	NA	NA	NA	0	186	186	137	586.739928900264	NA	NA	NA	NA	169.260196300223	169.260196300223	left	1	4.22030105267186	NA	NA	aac	1	2026-06-01_16h31.37.293	MR	2023.1.0	60.0076570632885
mr_images/6_a.png	mr_images/6_a_z_270.png	left	ccw	90	0,495589798199944	NA	NA	NA	0	187	187	151	588.202320999932	NA	NA	NA	NA	401.17813679995	401.17813679995	left	1	2.04013611970003	NA	NA	aac	1	2026-06-01_16h31.37.293	MR	2023.1.0	60.0076570632885
mr_images/12_b.png	mr_images/12_b_z_135.png	left	cw	135	0,439838199527003	NA	NA	NA	0	188	188	69	589.518751999829	NA	NA	NA	NA	361.300210400019	361.300210400019	left	1	1.86865067065228	NA	NA	aac	1	2026-06-01_16h31.37.293	MR	2023.1.0	60.0076570632885
mr_images/4_b.png	mr_images/4_a_z_45.png	right	cw	45	0,337268091156147	NA	NA	NA	0	189	189	108	592.40171799995	NA	NA	NA	NA	432.143686300144	432.143686300144	left	0	2.82234256493393	NA	NA	aac	1	2026-06-01_16h31.37.293	MR	2023.1.0	60.0076570632885
mr_images/4_a.png	mr_images/4_b_z_90.png	right	cw	90	0,308070232742466	NA	NA	NA	0	190	190	100	595.084614600055	NA	NA	NA	NA	143.531323700212	143.531323700212	left	0	3.55653988972771	NA	NA	aac	1	2026-06-01_16h31.37.293	MR	2023.1.0	60.0076570632885
mr_images/4_b.png	mr_images/4_a_z_270.png	right	ccw	90	0,585972827509977	NA	NA	NA	0	191	191	114	596.967701800168	NA	NA	NA	NA	372.332202900201	372.332202900201	left	0	2.74794070355129	NA	NA	aac	1	2026-06-01_16h31.37.293	MR	2023.1.0	60.0076570632885
mr_images/5_b.png	mr_images/5_a_z_90.png	right	cw	90	0,634858173900284	NA	NA	NA	0	192	192	136	598.284217400011	NA	NA	NA	NA	242.967037099879	242.967037099879	left	0	2.03354109523353	NA	NA	aac	1	2026-06-01_16h31.37.293	MR	2023.1.0	60.0076570632885
mr_images/3_a.png	mr_images/3_a_z_225.png	left	ccw	135	0,46374083228875	NA	NA	NA	0	193	193	83	600.68386660004	NA	NA	NA	NA	407.693913199939	407.693913199939	right	1	2.74468153605703	NA	NA	aac	1	2026-06-01_16h31.37.293	MR	2023.1.0	60.0076570632885
mr_images/11_b.png	mr_images/11_b_z_270.png	left	ccw	90	0,268279758631252	NA	NA	NA	0	194	194	43	603.917218199931	NA	NA	NA	NA	375.015182100236	375.015182100236	left	1	3.62890370201786	NA	NA	aac	1	2026-06-01_16h31.37.293	MR	2023.1.0	60.0076570632885
mr_images/11_b.png	mr_images/11_a_z_315.png	right	ccw	45	0,284515601233579	NA	NA	NA	0	195	195	38	608.087045900058	NA	NA	NA	NA	284.34445460001	284.34445460001	left	0	3.1506907976931	NA	NA	aac	1	2026-06-01_16h31.37.293	MR	2023.1.0	60.0076570632885
mr_images/1_b.png	mr_images/1_b_z_45.png	left	cw	45	0,599658535211347	NA	NA	NA	0	196	196	13	612.215628299862	NA	NA	NA	NA	567.471752900165	567.471752900165	right	0	2.70960671014618	NA	NA	aac	1	2026-06-01_16h31.37.293	MR	2023.1.0	60.0076570632885
mr_images/5_b.png	mr_images/5_b_z_315.png	left	ccw	45	0,960485329502262	NA	NA	NA	0	197	197	135	614.465682399925	NA	NA	NA	NA	662.441958699841	662.441958699841	right	0	4.88099403560628	NA	NA	aac	1	2026-06-01_16h31.37.293	MR	2023.1.0	60.0076570632885
mr_images/1_a.png	mr_images/1_b_z_270.png	right	ccw	90	0,894912917283364	NA	NA	NA	0	198	198	6	617.164996200241	NA	NA	NA	NA	229.435329	229.435329	left	0	3.4749243825907	NA	NA	aac	1	2026-06-01_16h31.37.293	MR	2023.1.0	60.0076570632885
mr_images/4_a.png	mr_images/4_b_z_315.png	right	ccw	45	0,604912419919856	NA	NA	NA	0	199	199	98	618.652194399852	NA	NA	NA	NA	587.269000899978	587.269000899978	left	0	1.39527304323856	NA	NA	aac	1	2026-06-01_16h31.37.293	MR	2023.1.0	60.0076570632885
mr_images/1_a.png	mr_images/1_b_z_90.png	right	cw	90	0,502776262233965	NA	NA	NA	0	200	200	4	619.91496630013	NA	NA	NA	NA	214.170674600173	214.170674600173	left	0	3.51695292422083	NA	NA	aac	1	2026-06-01_16h31.37.293	MR	2023.1.0	60.0076570632885
mr_images/5_b.png	mr_images/5_a_z_270.png	right	ccw	90	0,1763239846332	NA	NA	NA	0	201	201	138	622.514141899999	NA	NA	NA	NA	349.785415200051	349.785415200051	left	0	2.55582113715354	NA	NA	aac	1	2026-06-01_16h31.37.293	MR	2023.1.0	60.0076570632885
mr_images/1_a.png	mr_images/1_a_z_225.png	left	ccw	135	0,978361305431463	NA	NA	NA	0	202	202	11	624.234731700271	NA	NA	NA	NA	238.950693100225	238.950693100225	right	0	3.99390008382034	NA	NA	aac	1	2026-06-01_16h31.37.293	MR	2023.1.0	60.0076570632885
mr_images/6_a.png	mr_images/6_b_z_90.png	right	cw	90	0,589121652184986	NA	NA	NA	0	203	203	148	627.663859699853	NA	NA	NA	NA	253.315311999992	253.315311999992	left	0	1.92672940327321	NA	NA	aac	1	2026-06-01_16h31.37.293	MR	2023.1.0	60.0076570632885
mr_images/5_b.png	mr_images/5_b_z_270.png	left	ccw	90	0,0383693171897903	NA	NA	NA	0	204	204	139	630.746305100154	NA	NA	NA	NA	335.520339000039	335.520339000039	right	0	2.87205726385583	NA	NA	aac	1	2026-06-01_16h31.37.293	MR	2023.1.0	60.0076570632885
mr_images/12_a.png	mr_images/12_b_z_315.png	right	ccw	45	0,259347166516818	NA	NA	NA	0	205	205	50	634.262521599885	NA	NA	NA	NA	232.774971100036	232.774971100036	left	0	1.85561728493776	NA	NA	aac	1	2026-06-01_16h31.37.293	MR	2023.1.0	60.0076570632885
mr_images/3_a.png	mr_images/3_b_z_45.png	right	cw	45	0,166002259007655	NA	NA	NA	0	206	206	72	638.678722800221	NA	NA	NA	NA	342.669609799981	342.669609799981	left	1	3.49027490967419	NA	NA	aac	1	2026-06-01_16h31.37.293	MR	2023.1.0	60.0076570632885
mr_images/1_a.png	mr_images/1_a_z_270.png	left	ccw	90	0,39555989287328	NA	NA	NA	0	207	207	7	641.744790700264	NA	NA	NA	NA	NA	220.419904199895	left	1	2.13462860954461	NA	NA	aac	1	2026-06-01_16h31.37.293	MR	2023.1.0	60.0076570632885
mr_images/9_b.png	mr_images/9_b_z_315.png	left	ccw	45	0,802681558881886	NA	NA	NA	0	208	208	207	643.811243799981	NA	NA	NA	NA	193.373692099936	193.373692099936	right	0	2.66563947882969	NA	NA	aac	1	2026-06-01_16h31.37.293	MR	2023.1.0	60.0076570632885
mr_images/12_b.png	mr_images/12_b_z_225.png	left	ccw	135	0,726522114011459	NA	NA	NA	0	209	209	71	646.061019300018	NA	NA	NA	NA	399.278456900269	399.278456900269	left	1	1.6355939815985	NA	NA	aac	1	2026-06-01_16h31.37.293	MR	2023.1.0	60.0076570632885
mr_images/3_b.png	mr_images/3_a_z_90.png	right	cw	90	0,953146754414775	NA	NA	NA	0	210	210	88	649.181617300026	NA	NA	NA	NA	655.642860699911	655.642860699911	right	1	2.80301108227576	NA	NA	aac	1	2026-06-01_16h31.37.293	MR	2023.1.0	60.0076570632885
mr_images/11_b.png	mr_images/11_a_z_45.png	right	cw	45	0,36740648036357	NA	NA	NA	0	211	211	36	652.080938800238	NA	NA	NA	NA	217.403770899866	217.403770899866	left	1	3.69094997833018	NA	NA	aac	1	2026-06-01_16h31.37.293	MR	2023.1.0	60.0076570632885
mr_images/5_a.png	mr_images/5_a_z_225.png	left	ccw	135	0,545490638236515	NA	NA	NA	0	212	212	131	655.109610899817	NA	NA	NA	NA	179.008649100084	179.008649100084	left	1	2.17815305243712	NA	NA	aac	1	2026-06-01_16h31.37.293	MR	2023.1.0	60.0076570632885
mr_images/11_b.png	mr_images/11_a_z_90.png	right	cw	90	0,766263187280856	NA	NA	NA	0	213	213	40	657.825876099989	NA	NA	NA	NA	413.131254999898	413.131254999898	left	0	2.53544074113015	NA	NA	aac	1	2026-06-01_16h31.37.293	MR	2023.1.0	60.0076570632885
mr_images/9_b.png	mr_images/9_a_z_270.png	right	ccw	90	0,306697001098655	NA	NA	NA	0	214	214	210	660.358903300017	NA	NA	NA	NA	296.492445799988	296.492445799988	left	0	2.36498423891609	NA	NA	aac	1	2026-06-01_16h31.37.293	MR	2023.1.0	60.0076570632885
mr_images/11_b.png	mr_images/11_b_z_315.png	left	ccw	45	0,1725664177211	NA	NA	NA	0	215	215	39	661.908771200106	NA	NA	NA	NA	270.129733500071	270.129733500071	left	1	1.59150971521158	NA	NA	aac	1	2026-06-01_16h31.37.293	MR	2023.1.0	60.0076570632885
NA	NA	NA	NA	NA	NA	NA	NA	NA	NA	NA	NA	NA	NA	NA	NA	NA	NA	NA	NA	NA	NA	NA	666.741380800027	668.741130900104	NA	NA	NA	NA	NA	NA
