sequence	training_session.thisRepN	training_session.thisTrialN	training_session.thisN	training_session.thisIndex	training_2n.thisRepN	training_2n.thisTrialN	training_2n.thisN	training_2n.thisIndex	training_3n.thisRepN	training_3n.thisTrialN	training_3n.thisN	training_3n.thisIndex	training_4n.thisRepN	training_4n.thisTrialN	training_4n.thisN	training_4n.thisIndex	allrep_2nback.thisRepN	allrep_2nback.thisTrialN	allrep_2nback.thisN	allrep_2nback.thisIndex	trials_2nback.thisRepN	trials_2nback.thisTrialN	trials_2nback.thisN	trials_2nback.thisIndex	allrep_3nback.thisRepN	allrep_3nback.thisTrialN	allrep_3nback.thisN	allrep_3nback.thisIndex	trials_3nback.thisRepN	trials_3nback.thisTrialN	trials_3nback.thisN	trials_3nback.thisIndex	allrep_4nback.thisRepN	allrep_4nback.thisTrialN	allrep_4nback.thisN	allrep_4nback.thisIndex	trials_4nback.thisRepN	trials_4nback.thisTrialN	trials_4nback.thisN	trials_4nback.thisIndex	buffer02_txt.started	test_griddot_resp2.started	test_griddot_resp2.keys	test_griddot_resp2.rt	buffer23_txt.started	test_griddot_resp3.started	test_griddot_resp3.keys	test_griddot_resp3.rt	buffer34_txt.started	test_griddot_resp4.started	test_griddot_resp4.keys	test_griddot_resp4.rt	confirm_resp.started	confirm_resp.keys	confirm_resp.rt	instr_text_2.started	buffer02_txt.stopped	griddot_resp2.started	griddot_resp2.keys	griddot_resp2.rt	buffer23_txt.stopped	griddot_resp3.started	griddot_resp3.keys	griddot_resp3.rt	buffer34_txt.stopped	griddot_resp4.started	griddot_resp4.keys	griddot_resp4.rt	participant	session	date	expName	psychopyVersion	frameRate	...76
[(1, 2), (0, 1), (1, 1), (1, 1), (1, 1), (1, 2), (1, 0), (1, 2)]	0	0	0	0	0	0	0	39	NA	NA	NA	NA	NA	NA	NA	NA	NA	NA	NA	NA	NA	NA	NA	NA	NA	NA	NA	NA	NA	NA	NA	NA	NA	NA	NA	NA	NA	NA	NA	NA	265.8309505999787	269.9803088000044	['left', 'left', 'right', 'left']	[5.099121799925342, 8.33240489999298, 11.734653699910268, 13.092393399914727]	NA	NA	NA	NA	NA	NA	NA	NA	NA	NA	NA	NA	NA	NA	NA	NA	NA	NA	NA	NA	NA	NA	NA	NA	zaa	001	2026-02-10_11h54.56.414	SS	2023.1.0	60.017633175155154	NA
[(2, 2), (1, 2), (2, 2), (0, 1), (2, 2), (2, 1), (0, 2), (1, 1)]	0	0	0	0	0	1	1	129	NA	NA	NA	NA	NA	NA	NA	NA	NA	NA	NA	NA	NA	NA	NA	NA	NA	NA	NA	NA	NA	NA	NA	NA	NA	NA	NA	NA	NA	NA	NA	NA	NA	286.8818155999761	['right', 'left', 'left', 'left']	[6.462078599957749, 7.5956146999960765, 10.89166349999141, 12.934813299914822]	NA	NA	NA	NA	NA	NA	NA	NA	NA	NA	NA	NA	NA	NA	NA	NA	NA	NA	NA	NA	NA	NA	NA	NA	zaa	001	2026-02-10_11h54.56.414	SS	2023.1.0	60.017633175155154	NA
[(1, 2), (0, 1), (2, 0), (0, 1), (2, 0), (1, 0), (2, 2), (2, 1)]	0	0	0	0	0	2	2	664	NA	NA	NA	NA	NA	NA	NA	NA	NA	NA	NA	NA	NA	NA	NA	NA	NA	NA	NA	NA	NA	NA	NA	NA	NA	NA	NA	NA	NA	NA	NA	NA	NA	303.87976609996986	['left', 'right', 'left', 'left', 'left', 'left']	[4.848024099948816, 8.030861399951391, 9.245349999982864, 10.929506700020283, 13.163058600039221, 15.071776999975555]	NA	NA	NA	NA	NA	NA	NA	NA	NA	NA	NA	NA	NA	NA	NA	NA	NA	NA	NA	NA	NA	NA	NA	NA	zaa	001	2026-02-10_11h54.56.414	SS	2023.1.0	60.017633175155154	NA
[(2, 0), (2, 0), (1, 0), (1, 2), (2, 0), (1, 2), (2, 0), (2, 0), (1, 1)]	0	0	0	0	NA	NA	NA	NA	0	0	0	105	NA	NA	NA	NA	NA	NA	NA	NA	NA	NA	NA	NA	NA	NA	NA	NA	NA	NA	NA	NA	NA	NA	NA	NA	NA	NA	NA	NA	NA	NA	NA	NA	320.8233098000055	324.8894259999506	['left', 'right', 'left', 'right', 'right', 'left']	[6.811780699994415, 9.176120799966156, 12.373174299951643, 13.356684200000018, 15.054569000029005, 17.128311899956316]	NA	NA	NA	NA	NA	NA	NA	NA	NA	NA	NA	NA	NA	NA	NA	NA	NA	NA	NA	NA	zaa	001	2026-02-10_11h54.56.414	SS	2023.1.0	60.017633175155154	NA
[(1, 2), (2, 0), (2, 0), (0, 1), (1, 2), (1, 0), (0, 1), (0, 1), (1, 0)]	0	0	0	0	NA	NA	NA	NA	0	1	1	307	NA	NA	NA	NA	NA	NA	NA	NA	NA	NA	NA	NA	NA	NA	NA	NA	NA	NA	NA	NA	NA	NA	NA	NA	NA	NA	NA	NA	NA	NA	NA	NA	NA	343.9032966999803	['left', 'right', 'left', 'right', 'right']	[6.928164599929005, 9.802424199995585, 11.261525599984452, 13.090921299997717, 15.00201689999085]	NA	NA	NA	NA	NA	NA	NA	NA	NA	NA	NA	NA	NA	NA	NA	NA	NA	NA	NA	NA	zaa	001	2026-02-10_11h54.56.414	SS	2023.1.0	60.017633175155154	NA
[(0, 2), (2, 1), (1, 0), (0, 2), (0, 2), (2, 2), (1, 1), (0, 2), (0, 1)]	0	0	0	0	NA	NA	NA	NA	0	2	2	226	NA	NA	NA	NA	NA	NA	NA	NA	NA	NA	NA	NA	NA	NA	NA	NA	NA	NA	NA	NA	NA	NA	NA	NA	NA	NA	NA	NA	NA	NA	NA	NA	NA	362.88406489999034	['left', 'left', 'right', 'left', 'right', 'left']	[7.574604899971746, 9.882994799991138, 11.090111099998467, 13.355262099998072, 15.163366699940525, 17.150707299937494]	NA	NA	NA	NA	NA	NA	NA	NA	NA	NA	NA	NA	NA	NA	NA	NA	NA	NA	NA	NA	zaa	001	2026-02-10_11h54.56.414	SS	2023.1.0	60.017633175155154	NA
[(1, 1), (1, 0), (2, 1), (2, 1), (1, 1), (1, 0), (1, 1), (2, 2), (2, 1), (1, 0)]	0	0	0	0	NA	NA	NA	NA	NA	NA	NA	NA	0	0	0	250	NA	NA	NA	NA	NA	NA	NA	NA	NA	NA	NA	NA	NA	NA	NA	NA	NA	NA	NA	NA	NA	NA	NA	NA	NA	NA	NA	NA	NA	NA	NA	NA	381.8358065999346	385.89764380001	['right', 'right', 'left', 'left', 'right']	[9.703514000051655, 11.882665600045584, 13.083588600042276, 14.939741100068204, 17.43493860005401]	NA	NA	NA	NA	NA	NA	NA	NA	NA	NA	NA	NA	NA	NA	NA	NA	zaa	001	2026-02-10_11h54.56.414	SS	2023.1.0	60.017633175155154	NA
[(2, 0), (2, 1), (2, 2), (2, 0), (2, 0), (1, 2), (0, 1), (0, 1), (0, 2), (1, 2)]	0	0	0	0	NA	NA	NA	NA	NA	NA	NA	NA	0	1	1	448	NA	NA	NA	NA	NA	NA	NA	NA	NA	NA	NA	NA	NA	NA	NA	NA	NA	NA	NA	NA	NA	NA	NA	NA	NA	NA	NA	NA	NA	NA	NA	NA	NA	406.8819734000135	['right', 'left', 'left', 'left', 'left', 'right']	[9.090919199981727, 12.132957299938425, 13.47250549995806, 14.91758059989661, 17.725775499944575, 19.872006699908525]	NA	NA	NA	NA	NA	NA	NA	NA	NA	NA	NA	NA	NA	NA	NA	NA	zaa	001	2026-02-10_11h54.56.414	SS	2023.1.0	60.017633175155154	NA
[(0, 1), (1, 0), (0, 2), (0, 1), (2, 0), (0, 1), (0, 0), (2, 2), (2, 0), (0, 1)]	0	0	0	0	NA	NA	NA	NA	NA	NA	NA	NA	0	2	2	406	NA	NA	NA	NA	NA	NA	NA	NA	NA	NA	NA	NA	NA	NA	NA	NA	NA	NA	NA	NA	NA	NA	NA	NA	NA	NA	NA	NA	NA	NA	NA	NA	NA	427.891618499998	['left', 'right', 'left', 'right', 'right']	[9.596330400090665, 11.72650440002326, 13.37578800006304, 15.602920600096695, 17.73007780010812]	NA	NA	NA	NA	NA	NA	NA	NA	NA	NA	NA	NA	NA	NA	NA	NA	zaa	001	2026-02-10_11h54.56.414	SS	2023.1.0	60.017633175155154	NA
NA	0	0	0	0	NA	NA	NA	NA	NA	NA	NA	NA	NA	NA	NA	NA	NA	NA	NA	NA	NA	NA	NA	NA	NA	NA	NA	NA	NA	NA	NA	NA	NA	NA	NA	NA	NA	NA	NA	NA	NA	NA	NA	NA	NA	NA	NA	NA	NA	NA	NA	NA	447.82212859997526	y	42.68667059997097	NA	NA	NA	NA	NA	NA	NA	NA	NA	NA	NA	NA	NA	zaa	001	2026-02-10_11h54.56.414	SS	2023.1.0	60.017633175155154	NA
[(2, 2), (2, 1), (2, 2), (1, 2), (0, 2), (1, 1), (0, 2), (1, 0)]	NA	NA	NA	NA	NA	NA	NA	NA	NA	NA	NA	NA	NA	NA	NA	NA	0	0	0	0	0	0	0	84	NA	NA	NA	NA	NA	NA	NA	NA	NA	NA	NA	NA	NA	NA	NA	NA	496.34899630001746	NA	NA	NA	NA	NA	NA	NA	NA	NA	NA	NA	NA	NA	NA	490.53309899999294	499.41474379994906	500.4182471999666	['right', 'left', 'left', 'left']	[7.014187900000252, 8.853442799998447, 11.175508699961938, 14.999130500014871]	NA	NA	NA	NA	NA	NA	NA	NA	zaa	001	2026-02-10_11h54.56.414	SS	2023.1.0	60.017633175155154	NA
[(0, 2), (1, 1), (2, 1), (0, 1), (0, 0), (1, 2), (0, 0), (1, 2)]	NA	NA	NA	NA	NA	NA	NA	NA	NA	NA	NA	NA	NA	NA	NA	NA	0	0	0	0	0	1	1	547	NA	NA	NA	NA	NA	NA	NA	NA	NA	NA	NA	NA	NA	NA	NA	NA	NA	NA	NA	NA	NA	NA	NA	NA	NA	NA	NA	NA	NA	NA	NA	NA	NA	517.4162393999286	['left', 'left', 'left', 'right', 'right']	[6.252275200095028, 7.014750600093976, 8.890839600004256, 10.814074800000526, 13.180603399989195]	NA	NA	NA	NA	NA	NA	NA	NA	zaa	001	2026-02-10_11h54.56.414	SS	2023.1.0	60.017633175155154	NA
[(1, 2), (1, 1), (2, 1), (2, 2), (0, 1), (1, 0), (0, 1), (1, 0)]	NA	NA	NA	NA	NA	NA	NA	NA	NA	NA	NA	NA	NA	NA	NA	NA	0	0	0	0	0	2	2	496	NA	NA	NA	NA	NA	NA	NA	NA	NA	NA	NA	NA	NA	NA	NA	NA	NA	NA	NA	NA	NA	NA	NA	NA	NA	NA	NA	NA	NA	NA	NA	NA	NA	534.4268973999424	['left', 'left', 'left', 'left', 'right', 'left']	[5.50510079995729, 6.963091199984774, 9.47524209995754, 11.503505900036544, 13.079776800004765, 14.710856899968348]	NA	NA	NA	NA	NA	NA	NA	NA	zaa	001	2026-02-10_11h54.56.414	SS	2023.1.0	60.017633175155154	NA
[(2, 1), (0, 0), (2, 1), (0, 1), (2, 0), (2, 2), (2, 0), (1, 2)]	NA	NA	NA	NA	NA	NA	NA	NA	NA	NA	NA	NA	NA	NA	NA	NA	0	0	0	0	0	3	3	656	NA	NA	NA	NA	NA	NA	NA	NA	NA	NA	NA	NA	NA	NA	NA	NA	NA	NA	NA	NA	NA	NA	NA	NA	NA	NA	NA	NA	NA	NA	NA	NA	NA	551.411608699942	['right', 'left', 'left', 'right', 'right', 'left']	[5.408950899960473, 7.3243733999552205, 8.826782900025137, 11.63617059995886, 13.422420599963516, 15.156842399970628]	NA	NA	NA	NA	NA	NA	NA	NA	zaa	001	2026-02-10_11h54.56.414	SS	2023.1.0	60.017633175155154	NA
[(2, 2), (0, 2), (2, 2), (0, 2), (1, 2), (0, 1), (1, 0), (1, 1)]	NA	NA	NA	NA	NA	NA	NA	NA	NA	NA	NA	NA	NA	NA	NA	NA	0	0	0	0	0	4	4	104	NA	NA	NA	NA	NA	NA	NA	NA	NA	NA	NA	NA	NA	NA	NA	NA	NA	NA	NA	NA	NA	NA	NA	NA	NA	NA	NA	NA	NA	NA	NA	NA	NA	568.4089545999886	['right', 'right', 'left', 'left', 'left', 'left']	[5.172006199951284, 7.061358099919744, 8.956661999924108, 11.465088099939749, 13.732247599982657, 15.061393899959512]	NA	NA	NA	NA	NA	NA	NA	NA	zaa	001	2026-02-10_11h54.56.414	SS	2023.1.0	60.017633175155154	NA
[(0, 0), (1, 2), (0, 0), (0, 1), (0, 2), (0, 2), (0, 2), (1, 1)]	NA	NA	NA	NA	NA	NA	NA	NA	NA	NA	NA	NA	NA	NA	NA	NA	0	0	0	0	0	5	5	413	NA	NA	NA	NA	NA	NA	NA	NA	NA	NA	NA	NA	NA	NA	NA	NA	NA	NA	NA	NA	NA	NA	NA	NA	NA	NA	NA	NA	NA	NA	NA	NA	NA	585.4073028999846	['right', 'left', 'left', 'left', 'right', 'left']	[5.027943200082518, 7.306068400037475, 8.714181300019845, 11.456411100109108, 12.844576500006951, 15.608805800089613]	NA	NA	NA	NA	NA	NA	NA	NA	zaa	001	2026-02-10_11h54.56.414	SS	2023.1.0	60.017633175155154	NA
NA	NA	NA	NA	NA	NA	NA	NA	NA	NA	NA	NA	NA	NA	NA	NA	NA	0	0	0	0	NA	NA	NA	NA	NA	NA	NA	NA	NA	NA	NA	NA	NA	NA	NA	NA	NA	NA	NA	NA	NA	NA	NA	NA	NA	NA	NA	NA	NA	NA	NA	NA	NA	NA	NA	NA	NA	NA	NA	NA	NA	NA	NA	NA	NA	NA	NA	NA	zaa	001	2026-02-10_11h54.56.414	SS	2023.1.0	60.017633175155154	NA
[(0, 1), (2, 0), (0, 1), (0, 0), (2, 0), (2, 0), (0, 0), (2, 0)]	NA	NA	NA	NA	NA	NA	NA	NA	NA	NA	NA	NA	NA	NA	NA	NA	1	0	1	0	0	0	0	91	NA	NA	NA	NA	NA	NA	NA	NA	NA	NA	NA	NA	NA	NA	NA	NA	NA	NA	NA	NA	NA	NA	NA	NA	NA	NA	NA	NA	NA	NA	NA	NA	NA	605.6040050999727	['right', 'left', 'right', 'left', 'right']	[5.0967400999506935, 6.923827399965376, 9.399840699974447, 11.009961999952793, 13.240026899962686]	NA	NA	NA	NA	NA	NA	NA	NA	zaa	001	2026-02-10_11h54.56.414	SS	2023.1.0	60.017633175155154	NA
[(2, 1), (0, 0), (0, 0), (1, 0), (0, 0), (1, 0), (0, 2), (2, 2)]	NA	NA	NA	NA	NA	NA	NA	NA	NA	NA	NA	NA	NA	NA	NA	NA	1	0	1	0	0	1	1	344	NA	NA	NA	NA	NA	NA	NA	NA	NA	NA	NA	NA	NA	NA	NA	NA	NA	NA	NA	NA	NA	NA	NA	NA	NA	NA	NA	NA	NA	NA	NA	NA	NA	622.5981104000239	['right', 'left', 'right', 'right', 'left', 'left']	[5.287555700051598, 7.342700600042008, 8.942706600064412, 11.182777800015174, 12.979914000025019, 15.08545899996534]	NA	NA	NA	NA	NA	NA	NA	NA	zaa	001	2026-02-10_11h54.56.414	SS	2023.1.0	60.017633175155154	NA
[(2, 2), (0, 1), (2, 0), (2, 0), (2, 0), (0, 2), (0, 2), (0, 2)]	NA	NA	NA	NA	NA	NA	NA	NA	NA	NA	NA	NA	NA	NA	NA	NA	1	0	1	0	0	2	2	232	NA	NA	NA	NA	NA	NA	NA	NA	NA	NA	NA	NA	NA	NA	NA	NA	NA	NA	NA	NA	NA	NA	NA	NA	NA	NA	NA	NA	NA	NA	NA	NA	NA	639.6140366999898	['left', 'left', 'right', 'left', 'left', 'right']	[5.202977599925362, 7.253001899924129, 8.618999699945562, 11.011193200014532, 12.997364799957722, 14.549495599931106]	NA	NA	NA	NA	NA	NA	NA	NA	zaa	001	2026-02-10_11h54.56.414	SS	2023.1.0	60.017633175155154	NA
[(2, 2), (2, 1), (2, 2), (2, 1), (2, 1), (2, 2), (0, 0), (1, 2)]	NA	NA	NA	NA	NA	NA	NA	NA	NA	NA	NA	NA	NA	NA	NA	NA	1	0	1	0	0	3	3	23	NA	NA	NA	NA	NA	NA	NA	NA	NA	NA	NA	NA	NA	NA	NA	NA	NA	NA	NA	NA	NA	NA	NA	NA	NA	NA	NA	NA	NA	NA	NA	NA	NA	656.5972985000117	['right', 'right', 'left', 'right', 'left', 'left']	[5.006824999931268, 7.115977099980228, 9.38512929994613, 10.581228800001554, 12.815349599928595, 15.560625999933109]	NA	NA	NA	NA	NA	NA	NA	NA	zaa	001	2026-02-10_11h54.56.414	SS	2023.1.0	60.017633175155154	NA
[(1, 1), (0, 2), (1, 1), (0, 0), (0, 2), (0, 0), (1, 0), (2, 1)]	NA	NA	NA	NA	NA	NA	NA	NA	NA	NA	NA	NA	NA	NA	NA	NA	1	0	1	0	0	4	4	184	NA	NA	NA	NA	NA	NA	NA	NA	NA	NA	NA	NA	NA	NA	NA	NA	NA	NA	NA	NA	NA	NA	NA	NA	NA	NA	NA	NA	NA	NA	NA	NA	NA	673.5953438000288	['right', 'right', 'right', 'right', 'left', 'left']	[5.168095900095068, 7.659246800001711, 8.99662980006542, 11.667067800066434, 13.385939600062557, 15.652191700064577]	NA	NA	NA	NA	NA	NA	NA	NA	zaa	001	2026-02-10_11h54.56.414	SS	2023.1.0	60.017633175155154	NA
[(2, 0), (2, 2), (0, 2), (2, 2), (1, 0), (2, 2), (1, 2), (1, 2)]	NA	NA	NA	NA	NA	NA	NA	NA	NA	NA	NA	NA	NA	NA	NA	NA	1	0	1	0	0	5	5	196	NA	NA	NA	NA	NA	NA	NA	NA	NA	NA	NA	NA	NA	NA	NA	NA	NA	NA	NA	NA	NA	NA	NA	NA	NA	NA	NA	NA	NA	NA	NA	NA	NA	690.591700399993	['left', 'right', 'left', 'right', 'left', 'right']	[5.099660799955018, 6.90683250001166, 9.095617900020443, 10.940041399910115, 12.875540199922398, 14.964792900020257]	NA	NA	NA	NA	NA	NA	NA	NA	zaa	001	2026-02-10_11h54.56.414	SS	2023.1.0	60.017633175155154	NA
NA	NA	NA	NA	NA	NA	NA	NA	NA	NA	NA	NA	NA	NA	NA	NA	NA	1	0	1	0	NA	NA	NA	NA	NA	NA	NA	NA	NA	NA	NA	NA	NA	NA	NA	NA	NA	NA	NA	NA	NA	NA	NA	NA	NA	NA	NA	NA	NA	NA	NA	NA	NA	NA	NA	NA	NA	NA	NA	NA	NA	NA	NA	NA	NA	NA	NA	NA	zaa	001	2026-02-10_11h54.56.414	SS	2023.1.0	60.017633175155154	NA
[(2, 1), (0, 0), (1, 2), (2, 1), (2, 0), (1, 2), (2, 0), (0, 1), (2, 0)]	NA	NA	NA	NA	NA	NA	NA	NA	NA	NA	NA	NA	NA	NA	NA	NA	NA	NA	NA	NA	NA	NA	NA	NA	0	0	0	0	0	0	0	456	NA	NA	NA	NA	NA	NA	NA	NA	NA	NA	NA	NA	709.3193518000189	NA	NA	NA	NA	NA	NA	NA	NA	NA	NA	NA	NA	NA	NA	NA	712.38660540001	713.4187992999796	['right', 'left', 'right', 'left', 'left', 'right']	[6.9317219000076875, 9.658931500045583, 11.393030700040981, 13.85525470005814, 15.452360399998724, 17.08952160004992]	NA	NA	NA	NA	zaa	001	2026-02-10_11h54.56.414	SS	2023.1.0	60.017633175155154	NA
[(2, 2), (0, 2), (2, 1), (0, 2), (0, 2), (1, 1), (2, 1), (1, 1), (1, 1)]	NA	NA	NA	NA	NA	NA	NA	NA	NA	NA	NA	NA	NA	NA	NA	NA	NA	NA	NA	NA	NA	NA	NA	NA	0	0	0	0	0	1	1	223	NA	NA	NA	NA	NA	NA	NA	NA	NA	NA	NA	NA	NA	NA	NA	NA	NA	NA	NA	NA	NA	NA	NA	NA	NA	NA	NA	NA	NA	732.3994593999814	['left', 'right', 'left', 'right', 'left', 'right']	[8.043716400046833, 9.137834000051953, 11.100939300027676, 13.161106200073846, 15.3563575000735, 16.76742330007255]	NA	NA	NA	NA	zaa	001	2026-02-10_11h54.56.414	SS	2023.1.0	60.017633175155154	NA
[(0, 0), (0, 0), (2, 0), (0, 0), (0, 2), (0, 0), (1, 0), (2, 0), (0, 0)]	NA	NA	NA	NA	NA	NA	NA	NA	NA	NA	NA	NA	NA	NA	NA	NA	NA	NA	NA	NA	NA	NA	NA	NA	0	0	0	0	0	2	2	644	NA	NA	NA	NA	NA	NA	NA	NA	NA	NA	NA	NA	NA	NA	NA	NA	NA	NA	NA	NA	NA	NA	NA	NA	NA	NA	NA	NA	NA	751.3824003000045	['right', 'left', 'left', 'left', 'right']	[6.995927099953406, 9.071377699961886, 11.931503399973735, 13.161520499968901, 14.56953729991801]	NA	NA	NA	NA	zaa	001	2026-02-10_11h54.56.414	SS	2023.1.0	60.017633175155154	NA
[(1, 1), (1, 2), (1, 2), (0, 1), (1, 2), (1, 2), (0, 1), (0, 2), (2, 2)]	NA	NA	NA	NA	NA	NA	NA	NA	NA	NA	NA	NA	NA	NA	NA	NA	NA	NA	NA	NA	NA	NA	NA	NA	0	0	0	0	0	3	3	183	NA	NA	NA	NA	NA	NA	NA	NA	NA	NA	NA	NA	NA	NA	NA	NA	NA	NA	NA	NA	NA	NA	NA	NA	NA	NA	NA	NA	NA	770.3805096999276	['left', 'right', 'right', 'left', 'left', 'left']	[6.881286700023338, 9.026456500054337, 11.424639699980617, 13.789113100036047, 14.981244200025685, 16.8496962999925]	NA	NA	NA	NA	zaa	001	2026-02-10_11h54.56.414	SS	2023.1.0	60.017633175155154	NA
[(1, 1), (1, 2), (2, 2), (1, 1), (1, 2), (2, 2), (2, 1), (0, 2), (1, 0)]	NA	NA	NA	NA	NA	NA	NA	NA	NA	NA	NA	NA	NA	NA	NA	NA	NA	NA	NA	NA	NA	NA	NA	NA	0	0	0	0	0	4	4	423	NA	NA	NA	NA	NA	NA	NA	NA	NA	NA	NA	NA	NA	NA	NA	NA	NA	NA	NA	NA	NA	NA	NA	NA	NA	NA	NA	NA	NA	789.3779809999978	['right', 'left', 'right', 'left', 'left', 'left']	[6.738390399958007, 9.75380549998954, 11.156863499898463, 12.8852149999002, 14.756504499935545, 16.972227499936707]	NA	NA	NA	NA	zaa	001	2026-02-10_11h54.56.414	SS	2023.1.0	60.017633175155154	NA
[(1, 2), (0, 0), (2, 0), (0, 0), (2, 0), (2, 0), (1, 0), (1, 0), (2, 0)]	NA	NA	NA	NA	NA	NA	NA	NA	NA	NA	NA	NA	NA	NA	NA	NA	NA	NA	NA	NA	NA	NA	NA	NA	0	0	0	0	0	5	5	398	NA	NA	NA	NA	NA	NA	NA	NA	NA	NA	NA	NA	NA	NA	NA	NA	NA	NA	NA	NA	NA	NA	NA	NA	NA	NA	NA	NA	NA	808.3763562999666	['left', 'right', 'left', 'left', 'right', 'left']	[7.495293300016783, 9.069391599972732, 11.172529799980111, 12.988073999993503, 16.285966399940662, 16.84997250000015]	NA	NA	NA	NA	zaa	001	2026-02-10_11h54.56.414	SS	2023.1.0	60.017633175155154	NA
NA	NA	NA	NA	NA	NA	NA	NA	NA	NA	NA	NA	NA	NA	NA	NA	NA	NA	NA	NA	NA	NA	NA	NA	NA	0	0	0	0	NA	NA	NA	NA	NA	NA	NA	NA	NA	NA	NA	NA	NA	NA	NA	NA	NA	NA	NA	NA	NA	NA	NA	NA	NA	NA	NA	NA	NA	NA	NA	NA	NA	NA	NA	NA	NA	NA	NA	NA	zaa	001	2026-02-10_11h54.56.414	SS	2023.1.0	60.017633175155154	NA
[(2, 2), (1, 1), (2, 1), (2, 0), (1, 1), (2, 1), (0, 0), (1, 2), (2, 0)]	NA	NA	NA	NA	NA	NA	NA	NA	NA	NA	NA	NA	NA	NA	NA	NA	NA	NA	NA	NA	NA	NA	NA	NA	1	0	1	0	0	0	0	587	NA	NA	NA	NA	NA	NA	NA	NA	NA	NA	NA	NA	NA	NA	NA	NA	NA	NA	NA	NA	NA	NA	NA	NA	NA	NA	NA	NA	NA	830.5736782000167	['left', 'right', 'right', 'left', 'left', 'right']	[6.742028300068341, 9.127439100062475, 10.917505600024015, 12.819524000049569, 15.541830500005744, 16.946247400017455]	NA	NA	NA	NA	zaa	001	2026-02-10_11h54.56.414	SS	2023.1.0	60.017633175155154	NA
[(2, 2), (1, 0), (1, 1), (2, 2), (1, 0), (2, 1), (0, 0), (2, 1), (2, 1)]	NA	NA	NA	NA	NA	NA	NA	NA	NA	NA	NA	NA	NA	NA	NA	NA	NA	NA	NA	NA	NA	NA	NA	NA	1	0	1	0	0	1	1	18	NA	NA	NA	NA	NA	NA	NA	NA	NA	NA	NA	NA	NA	NA	NA	NA	NA	NA	NA	NA	NA	NA	NA	NA	NA	NA	NA	NA	NA	849.5831364999758	['right', 'right', 'right', 'left', 'right', 'left']	[6.7579548000358045, 9.391705600079149, 11.09088380006142, 12.874957000021823, 15.608201000024565, 17.654678100021556]	NA	NA	NA	NA	zaa	001	2026-02-10_11h54.56.414	SS	2023.1.0	60.017633175155154	NA
[(2, 0), (1, 0), (0, 2), (2, 0), (2, 0), (0, 1), (2, 0), (1, 1), (2, 2)]	NA	NA	NA	NA	NA	NA	NA	NA	NA	NA	NA	NA	NA	NA	NA	NA	NA	NA	NA	NA	NA	NA	NA	NA	1	0	1	0	0	2	2	571	NA	NA	NA	NA	NA	NA	NA	NA	NA	NA	NA	NA	NA	NA	NA	NA	NA	NA	NA	NA	NA	NA	NA	NA	NA	NA	NA	NA	NA	868.5673023000127	['right', 'left', 'left', 'left', 'left', 'left']	[6.603199400007725, 9.206491600023583, 11.312403500080109, 14.058165400056168, 15.04624860000331, 17.576397000113502]	NA	NA	NA	NA	zaa	001	2026-02-10_11h54.56.414	SS	2023.1.0	60.017633175155154	NA
[(2, 2), (0, 2), (1, 2), (2, 0), (0, 2), (1, 2), (0, 2), (2, 1), (0, 2)]	NA	NA	NA	NA	NA	NA	NA	NA	NA	NA	NA	NA	NA	NA	NA	NA	NA	NA	NA	NA	NA	NA	NA	NA	1	0	1	0	0	3	3	584	NA	NA	NA	NA	NA	NA	NA	NA	NA	NA	NA	NA	NA	NA	NA	NA	NA	NA	NA	NA	NA	NA	NA	NA	NA	NA	NA	NA	NA	887.5643549999222	['left', 'right', 'left', 'right', 'left', 'right']	[7.101319500012323, 9.254741200013086, 11.726275500026532, 13.388455700012855, 15.223815400036983, 17.524848700035363]	NA	NA	NA	NA	zaa	001	2026-02-10_11h54.56.414	SS	2023.1.0	60.017633175155154	NA
[(2, 1), (2, 1), (0, 0), (2, 2), (1, 2), (0, 0), (0, 1), (1, 2), (2, 2)]	NA	NA	NA	NA	NA	NA	NA	NA	NA	NA	NA	NA	NA	NA	NA	NA	NA	NA	NA	NA	NA	NA	NA	NA	1	0	1	0	0	4	4	17	NA	NA	NA	NA	NA	NA	NA	NA	NA	NA	NA	NA	NA	NA	NA	NA	NA	NA	NA	NA	NA	NA	NA	NA	NA	NA	NA	NA	NA	906.5624212999828	['left', 'left', 'right', 'left', 'right', 'right']	[6.759711599908769, 8.833149799960665, 11.479383099940605, 14.36773539998103, 15.572686099912971, 17.03575339994859]	NA	NA	NA	NA	zaa	001	2026-02-10_11h54.56.414	SS	2023.1.0	60.017633175155154	NA
[(1, 2), (1, 1), (2, 0), (0, 0), (0, 0), (2, 0), (0, 0), (1, 2), (1, 0)]	NA	NA	NA	NA	NA	NA	NA	NA	NA	NA	NA	NA	NA	NA	NA	NA	NA	NA	NA	NA	NA	NA	NA	NA	1	0	1	0	0	5	5	275	NA	NA	NA	NA	NA	NA	NA	NA	NA	NA	NA	NA	NA	NA	NA	NA	NA	NA	NA	NA	NA	NA	NA	NA	NA	NA	NA	NA	NA	925.5593008999712	['left', 'left', 'right', 'right', 'left', 'left']	[7.294584500021301, 10.146087100030854, 11.456656099995598, 13.339236999978311, 15.176347499946132, 17.033513800008222]	NA	NA	NA	NA	zaa	001	2026-02-10_11h54.56.414	SS	2023.1.0	60.017633175155154	NA
NA	NA	NA	NA	NA	NA	NA	NA	NA	NA	NA	NA	NA	NA	NA	NA	NA	NA	NA	NA	NA	NA	NA	NA	NA	1	0	1	0	NA	NA	NA	NA	NA	NA	NA	NA	NA	NA	NA	NA	NA	NA	NA	NA	NA	NA	NA	NA	NA	NA	NA	NA	NA	NA	NA	NA	NA	NA	NA	NA	NA	NA	NA	NA	NA	NA	NA	NA	zaa	001	2026-02-10_11h54.56.414	SS	2023.1.0	60.017633175155154	NA
[(0, 2), (1, 2), (2, 0), (2, 2), (2, 1), (0, 2), (0, 1), (0, 2), (2, 1), (0, 2)]	NA	NA	NA	NA	NA	NA	NA	NA	NA	NA	NA	NA	NA	NA	NA	NA	NA	NA	NA	NA	NA	NA	NA	NA	NA	NA	NA	NA	NA	NA	NA	NA	0	0	0	0	0	0	0	25	NA	NA	NA	NA	NA	NA	NA	NA	947.5030656999444	NA	NA	NA	NA	NA	NA	NA	NA	NA	NA	NA	NA	NA	NA	NA	950.5698837999952	951.5522257999984	['left', 'right', 'left', 'right', 'left', 'left']	[8.973987499950454, 11.305482700001448, 13.052993399905972, 16.05914969998412, 16.676471199956723, 19.516182099934667]	zaa	001	2026-02-10_11h54.56.414	SS	2023.1.0	60.017633175155154	NA
[(0, 1), (2, 2), (2, 1), (1, 0), (0, 1), (2, 2), (1, 0), (2, 0), (0, 0), (1, 2)]	NA	NA	NA	NA	NA	NA	NA	NA	NA	NA	NA	NA	NA	NA	NA	NA	NA	NA	NA	NA	NA	NA	NA	NA	NA	NA	NA	NA	NA	NA	NA	NA	0	0	0	0	0	1	1	331	NA	NA	NA	NA	NA	NA	NA	NA	NA	NA	NA	NA	NA	NA	NA	NA	NA	NA	NA	NA	NA	NA	NA	NA	NA	972.5826450999592	['right', 'right', 'left', 'left', 'right', 'left']	[8.869314800016582, 11.163504399941303, 12.978641399997286, 15.123201599926688, 17.02560029993765, 19.293759600026533]	zaa	001	2026-02-10_11h54.56.414	SS	2023.1.0	60.017633175155154	NA
[(0, 2), (2, 0), (1, 1), (2, 2), (0, 0), (2, 0), (1, 1), (0, 0), (1, 0), (2, 2)]	NA	NA	NA	NA	NA	NA	NA	NA	NA	NA	NA	NA	NA	NA	NA	NA	NA	NA	NA	NA	NA	NA	NA	NA	NA	NA	NA	NA	NA	NA	NA	NA	0	0	0	0	0	2	2	535	NA	NA	NA	NA	NA	NA	NA	NA	NA	NA	NA	NA	NA	NA	NA	NA	NA	NA	NA	NA	NA	NA	NA	NA	NA	993.579916800023	['left', 'left', 'right', 'left', 'left', 'right']	[9.028083400102332, 11.164889700012282, 13.165271900012158, 15.398199900053442, 16.977550200070255, 18.869661700096913]	zaa	001	2026-02-10_11h54.56.414	SS	2023.1.0	60.017633175155154	NA
[(2, 2), (0, 1), (1, 0), (0, 1), (0, 0), (1, 1), (1, 0), (2, 1), (2, 2), (1, 1)]	NA	NA	NA	NA	NA	NA	NA	NA	NA	NA	NA	NA	NA	NA	NA	NA	NA	NA	NA	NA	NA	NA	NA	NA	NA	NA	NA	NA	NA	NA	NA	NA	0	0	0	0	0	3	3	203	NA	NA	NA	NA	NA	NA	NA	NA	NA	NA	NA	NA	NA	NA	NA	NA	NA	NA	NA	NA	NA	NA	NA	NA	NA	1014.5640927000204	['left', 'left', 'right', 'right', 'left', 'left']	[8.711794500006363, 11.155392700107768, 13.792805200093426, 15.479414400062524, 17.244550300063565, 19.182672000024468]	zaa	001	2026-02-10_11h54.56.414	SS	2023.1.0	60.017633175155154	NA
[(1, 2), (0, 2), (1, 0), (1, 2), (1, 2), (0, 2), (1, 2), (2, 2), (0, 0), (1, 2)]	NA	NA	NA	NA	NA	NA	NA	NA	NA	NA	NA	NA	NA	NA	NA	NA	NA	NA	NA	NA	NA	NA	NA	NA	NA	NA	NA	NA	NA	NA	NA	NA	0	0	0	0	0	4	4	441	NA	NA	NA	NA	NA	NA	NA	NA	NA	NA	NA	NA	NA	NA	NA	NA	NA	NA	NA	NA	NA	NA	NA	NA	NA	1035.561182799982	['left', 'right', 'left', 'left', 'left', 'right']	[9.029656699975021, 10.941118699964136, 13.078299399930984, 15.894012299948372, 17.200030599953607, 18.958151099970564]	zaa	001	2026-02-10_11h54.56.414	SS	2023.1.0	60.017633175155154	NA
[(2, 0), (1, 2), (0, 1), (1, 0), (1, 0), (1, 2), (1, 0), (1, 0), (1, 0), (1, 0)]	NA	NA	NA	NA	NA	NA	NA	NA	NA	NA	NA	NA	NA	NA	NA	NA	NA	NA	NA	NA	NA	NA	NA	NA	NA	NA	NA	NA	NA	NA	NA	NA	0	0	0	0	0	5	5	610	NA	NA	NA	NA	NA	NA	NA	NA	NA	NA	NA	NA	NA	NA	NA	NA	NA	NA	NA	NA	NA	NA	NA	NA	NA	1056.5710961000295	['left', 'right', 'left', 'right', 'right', 'left']	[8.807609400013462, 11.24797580006998, 13.373240199987777, 15.411086900043301, 17.239223700016737, 18.8508857000852]	zaa	001	2026-02-10_11h54.56.414	SS	2023.1.0	60.017633175155154	NA
NA	NA	NA	NA	NA	NA	NA	NA	NA	NA	NA	NA	NA	NA	NA	NA	NA	NA	NA	NA	NA	NA	NA	NA	NA	NA	NA	NA	NA	NA	NA	NA	NA	0	0	0	0	NA	NA	NA	NA	NA	NA	NA	NA	NA	NA	NA	NA	NA	NA	NA	NA	NA	NA	NA	NA	NA	NA	NA	NA	NA	NA	NA	NA	NA	NA	NA	NA	zaa	001	2026-02-10_11h54.56.414	SS	2023.1.0	60.017633175155154	NA
[(1, 1), (1, 0), (0, 0), (0, 2), (2, 1), (1, 1), (1, 0), (1, 2), (2, 1), (1, 1)]	NA	NA	NA	NA	NA	NA	NA	NA	NA	NA	NA	NA	NA	NA	NA	NA	NA	NA	NA	NA	NA	NA	NA	NA	NA	NA	NA	NA	NA	NA	NA	NA	1	0	1	0	0	0	0	537	NA	NA	NA	NA	NA	NA	NA	NA	NA	NA	NA	NA	NA	NA	NA	NA	NA	NA	NA	NA	NA	NA	NA	NA	NA	1083.5340033000102	['left', 'right', 'left', 'left', 'left', 'right']	[9.360311000025831, 10.688562000053935, 13.349249000078999, 15.704624500009231, 17.530750300036743, 19.760266600060277]	zaa	001	2026-02-10_11h54.56.414	SS	2023.1.0	60.017633175155154	NA
[(1, 2), (1, 0), (1, 1), (2, 1), (0, 1), (0, 1), (0, 2), (2, 1), (0, 1), (0, 1)]	NA	NA	NA	NA	NA	NA	NA	NA	NA	NA	NA	NA	NA	NA	NA	NA	NA	NA	NA	NA	NA	NA	NA	NA	NA	NA	NA	NA	NA	NA	NA	NA	1	0	1	0	0	1	1	336	NA	NA	NA	NA	NA	NA	NA	NA	NA	NA	NA	NA	NA	NA	NA	NA	NA	NA	NA	NA	NA	NA	NA	NA	NA	1104.5354959999677	['left', 'left', 'left', 'right', 'left', 'right']	[8.76281859993469, 11.457442199927755, 13.026714199921116, 15.497927299933508, 17.669773799949326, 18.619703299948014]	zaa	001	2026-02-10_11h54.56.414	SS	2023.1.0	60.017633175155154	NA
[(0, 1), (2, 1), (2, 0), (1, 0), (2, 2), (2, 1), (2, 0), (2, 1), (2, 1), (1, 1)]	NA	NA	NA	NA	NA	NA	NA	NA	NA	NA	NA	NA	NA	NA	NA	NA	NA	NA	NA	NA	NA	NA	NA	NA	NA	NA	NA	NA	NA	NA	NA	NA	1	0	1	0	0	2	2	529	NA	NA	NA	NA	NA	NA	NA	NA	NA	NA	NA	NA	NA	NA	NA	NA	NA	NA	NA	NA	NA	NA	NA	NA	NA	1125.5316640000092	['left', 'right', 'right', 'left', 'right', 'left']	[8.710011699935421, 11.222745399922132, 12.808123699971475, 14.741307799937204, 16.59945300000254, 19.175703599932604]	zaa	001	2026-02-10_11h54.56.414	SS	2023.1.0	60.017633175155154	NA
[(0, 2), (1, 1), (2, 2), (0, 0), (2, 0), (1, 1), (0, 2), (0, 2), (2, 0), (1, 2)]	NA	NA	NA	NA	NA	NA	NA	NA	NA	NA	NA	NA	NA	NA	NA	NA	NA	NA	NA	NA	NA	NA	NA	NA	NA	NA	NA	NA	NA	NA	NA	NA	1	0	1	0	0	3	3	164	NA	NA	NA	NA	NA	NA	NA	NA	NA	NA	NA	NA	NA	NA	NA	NA	NA	NA	NA	NA	NA	NA	NA	NA	NA	1146.5427845999366	['left', 'left', 'left', 'right', 'left', 'left']	[8.741298599983566, 11.495549199986272, 13.740998899913393, 15.83416969992686, 18.55389149999246, 19.437947399914265]	zaa	001	2026-02-10_11h54.56.414	SS	2023.1.0	60.017633175155154	NA
[(2, 0), (2, 1), (2, 1), (1, 1), (2, 0), (2, 2), (2, 1), (2, 2), (0, 1), (0, 1)]	NA	NA	NA	NA	NA	NA	NA	NA	NA	NA	NA	NA	NA	NA	NA	NA	NA	NA	NA	NA	NA	NA	NA	NA	NA	NA	NA	NA	NA	NA	NA	NA	1	0	1	0	0	4	4	590	NA	NA	NA	NA	NA	NA	NA	NA	NA	NA	NA	NA	NA	NA	NA	NA	NA	NA	NA	NA	NA	NA	NA	NA	NA	1167.5221971999854	['right', 'left', 'right', 'right', 'left', 'left']	[8.719378200010397, 11.494159599998966, 12.935481599997729, 15.454937800066546, 16.991345799993724, 19.671532100066543]	zaa	001	2026-02-10_11h54.56.414	SS	2023.1.0	60.017633175155154	NA
[(2, 1), (2, 2), (2, 2), (1, 2), (2, 1), (1, 1), (2, 0), (1, 2), (1, 1), (0, 1)]	NA	NA	NA	NA	NA	NA	NA	NA	NA	NA	NA	NA	NA	NA	NA	NA	NA	NA	NA	NA	NA	NA	NA	NA	NA	NA	NA	NA	NA	NA	NA	NA	1	0	1	0	0	5	5	388	NA	NA	NA	NA	NA	NA	NA	NA	NA	NA	NA	NA	NA	NA	NA	NA	NA	NA	NA	NA	NA	NA	NA	NA	NA	1188.5239582000067	['right', 'left', 'left', 'right', 'right', 'left']	[9.02162229991518, 11.011792999925092, 13.087323699961416, 14.733673599897884, 17.6001135999104, 18.937227599904872]	zaa	001	2026-02-10_11h54.56.414	SS	2023.1.0	60.017633175155154	NA
NA	NA	NA	NA	NA	NA	NA	NA	NA	NA	NA	NA	NA	NA	NA	NA	NA	NA	NA	NA	NA	NA	NA	NA	NA	NA	NA	NA	NA	NA	NA	NA	NA	1	0	1	0	NA	NA	NA	NA	NA	NA	NA	NA	NA	NA	NA	NA	NA	NA	NA	NA	NA	NA	NA	NA	NA	NA	NA	NA	NA	NA	NA	NA	NA	NA	NA	NA	zaa	001	2026-02-10_11h54.56.414	SS	2023.1.0	60.017633175155154	NA
