imagefile	stimfile	corrAns	MRdir	angle	training.thisRepN	training.thisTrialN	training.thisN	training.thisIndex	mentalrot_trials.thisRepN	mentalrot_trials.thisTrialN	mentalrot_trials.thisN	mentalrot_trials.thisIndex	blank.started	mr_answ_2.started	mr_answ_2.keys	mr_answ_2.corr	mr_answ_2.rt	blank.stopped	mr_answ.started	mr_answ.keys	mr_answ.corr	mr_answ.rt	byebye_text.started	byebye_text.stopped	participant	session	date	expName	psychopyVersion	frameRate	...32
mr_images/7_a.png	mr_images/7_b_z_315.png	right	ccw	45	0	0	0	170	NA	NA	NA	NA	245.83917169994675	246.37321130000055	None	0	NA	NA	NA	NA	NA	NA	NA	NA	zaa	001	2026-02-10_12h47.51.343	MR	2023.1.0	60.04080373337148	NA
mr_images/12_b.png	mr_images/12_b_z_270.png	left	ccw	90	0	1	1	67	NA	NA	NA	NA	251.2873093999224	251.8729601999512	right	0	2.7927877000765875	NA	NA	NA	NA	NA	NA	NA	zaa	001	2026-02-10_12h47.51.343	MR	2023.1.0	60.04080373337148	NA
mr_images/7_a.png	mr_images/7_a_z_45.png	left	cw	45	0	2	2	169	NA	NA	NA	NA	254.69120429991744	255.2534748999169	right	0	1.8254679000237957	255.2534748999169	NA	NA	NA	NA	NA	NA	zaa	001	2026-02-10_12h47.51.343	MR	2023.1.0	60.04080373337148	NA
mr_images/3_a.png	mr_images/3_b_z_225.png	right	ccw	135	0	3	3	82	NA	NA	NA	NA	257.10337259992957	257.6866109999828	left	0	2.9979902000632137	257.6866109999828	NA	NA	NA	NA	NA	NA	zaa	001	2026-02-10_12h47.51.343	MR	2023.1.0	60.04080373337148	NA
mr_images/3_b.png	mr_images/3_b_z_315.png	left	ccw	45	0	4	4	87	NA	NA	NA	NA	260.70266199996695	261.28571450000163	right	0	2.605948300100863	261.28571450000163	NA	NA	NA	NA	NA	NA	zaa	001	2026-02-10_12h47.51.343	MR	2023.1.0	60.04080373337148	NA
mr_images/12_a.png	mr_images/12_b_z_225.png	right	ccw	135	NA	NA	NA	NA	0	0	0	58	344.00799779989757	NA	NA	NA	NA	NA	344.5078214999521	right	1	1.7920316000236198	NA	NA	zaa	001	2026-02-10_12h47.51.343	MR	2023.1.0	60.04080373337148	NA
mr_images/5_a.png	mr_images/5_b_z_90.png	right	cw	90	NA	NA	NA	NA	0	1	1	124	346.3241309999721	NA	NA	NA	NA	346.90750959992874	346.90750959992874	left	0	2.3110162999946624	NA	NA	zaa	001	2026-02-10_12h47.51.343	MR	2023.1.0	60.04080373337148	NA
mr_images/4_a.png	mr_images/4_a_z_45.png	left	cw	45	NA	NA	NA	NA	0	2	2	97	349.24054209992755	NA	NA	NA	NA	349.82365639996715	349.82365639996715	right	0	1.724034099956043	NA	NA	zaa	001	2026-02-10_12h47.51.343	MR	2023.1.0	60.04080373337148	NA
mr_images/7_a.png	mr_images/7_b_z_315.png	right	ccw	45	NA	NA	NA	NA	0	3	3	170	351.5733811999671	NA	NA	NA	NA	352.1066740999231	352.1066740999231	left	0	1.61036619998049	NA	NA	zaa	001	2026-02-10_12h47.51.343	MR	2023.1.0	60.04080373337148	NA
mr_images/12_b.png	mr_images/12_a_z_225.png	right	ccw	135	NA	NA	NA	NA	0	4	4	70	353.73992319998797	NA	NA	NA	NA	354.291121999966	354.291121999966	left	0	1.8432695999508724	NA	NA	zaa	001	2026-02-10_12h47.51.343	MR	2023.1.0	60.04080373337148	NA
mr_images/7_b.png	mr_images/7_a_z_315.png	right	ccw	45	NA	NA	NA	NA	0	5	5	182	356.1560881999321	NA	NA	NA	NA	356.7393536999589	356.7393536999589	left	0	1.459288900019601	NA	NA	zaa	001	2026-02-10_12h47.51.343	MR	2023.1.0	60.04080373337148	NA
mr_images/5_a.png	mr_images/5_a_z_225.png	left	ccw	135	NA	NA	NA	NA	0	6	6	131	358.22247759997845	NA	NA	NA	NA	358.79024209990166	358.79024209990166	left	1	1.570935600087978	NA	NA	zaa	001	2026-02-10_12h47.51.343	MR	2023.1.0	60.04080373337148	NA
mr_images/6_a.png	mr_images/6_a_z_225.png	left	ccw	135	NA	NA	NA	NA	0	7	7	155	360.3888645999832	NA	NA	NA	NA	360.9718872999074	360.9718872999074	right	0	1.7789629000471905	NA	NA	zaa	001	2026-02-10_12h47.51.343	MR	2023.1.0	60.04080373337148	NA
mr_images/3_b.png	mr_images/3_b_z_135.png	left	cw	135	NA	NA	NA	NA	0	8	8	93	362.77182549994905	NA	NA	NA	NA	363.3260743999854	363.3260743999854	left	1	2.4587190999882296	NA	NA	zaa	001	2026-02-10_12h47.51.343	MR	2023.1.0	60.04080373337148	NA
mr_images/12_a.png	mr_images/12_b_z_135.png	right	cw	135	NA	NA	NA	NA	0	9	9	56	365.80905099993106	NA	NA	NA	NA	366.3714220999973	366.3714220999973	right	1	1.6205195999937132	NA	NA	zaa	001	2026-02-10_12h47.51.343	MR	2023.1.0	60.04080373337148	NA
mr_images/1_a.png	mr_images/1_a_z_90.png	left	cw	90	NA	NA	NA	NA	0	10	10	5	368.02115359995514	NA	NA	NA	NA	368.60443419998046	368.60443419998046	right	0	1.975150699960068	NA	NA	zaa	001	2026-02-10_12h47.51.343	MR	2023.1.0	60.04080373337148	NA
mr_images/9_b.png	mr_images/9_b_z_45.png	left	cw	45	NA	NA	NA	NA	0	11	11	205	370.604167799931	NA	NA	NA	NA	371.1890189999249	371.1890189999249	right	0	2.4093764000572264	NA	NA	zaa	001	2026-02-10_12h47.51.343	MR	2023.1.0	60.04080373337148	NA
mr_images/3_b.png	mr_images/3_a_z_135.png	right	cw	135	NA	NA	NA	NA	0	12	12	92	373.6203666999936	NA	NA	NA	NA	374.1702884999104	374.1702884999104	left	0	1.7546494000125676	NA	NA	zaa	001	2026-02-10_12h47.51.343	MR	2023.1.0	60.04080373337148	NA
mr_images/4_b.png	mr_images/4_a_z_90.png	right	cw	90	NA	NA	NA	NA	0	13	13	112	375.9533724999055	NA	NA	NA	NA	376.53647539997473	376.53647539997473	left	0	1.831816100049764	NA	NA	zaa	001	2026-02-10_12h47.51.343	MR	2023.1.0	60.04080373337148	NA
mr_images/7_a.png	mr_images/7_b_z_225.png	right	ccw	135	NA	NA	NA	NA	0	14	14	178	378.3865723999915	NA	NA	NA	NA	378.9529323999304	378.9529323999304	right	1	1.6933714000042528	NA	NA	zaa	001	2026-02-10_12h47.51.343	MR	2023.1.0	60.04080373337148	NA
mr_images/11_b.png	mr_images/11_a_z_315.png	right	ccw	45	NA	NA	NA	NA	0	15	15	38	380.66942289995495	NA	NA	NA	NA	381.2527079998981	381.2527079998981	right	1	2.5042636999860406	NA	NA	zaa	001	2026-02-10_12h47.51.343	MR	2023.1.0	60.04080373337148	NA
mr_images/6_b.png	mr_images/6_b_z_270.png	left	ccw	90	NA	NA	NA	NA	0	16	16	163	383.78568209998775	NA	NA	NA	NA	384.36874329997227	384.36874329997227	right	0	1.44323059997987	NA	NA	zaa	001	2026-02-10_12h47.51.343	MR	2023.1.0	60.04080373337148	NA
mr_images/12_a.png	mr_images/12_a_z_225.png	left	ccw	135	NA	NA	NA	NA	0	17	17	59	385.8353283999022	NA	NA	NA	NA	386.3687071999302	386.3687071999302	left	1	1.6864496000343934	NA	NA	zaa	001	2026-02-10_12h47.51.343	MR	2023.1.0	60.04080373337148	NA
mr_images/1_b.png	mr_images/1_b_z_315.png	left	ccw	45	NA	NA	NA	NA	0	18	18	15	388.0850358000025	NA	NA	NA	NA	388.6681443999987	388.6681443999987	left	1	2.054612400010228	NA	NA	zaa	001	2026-02-10_12h47.51.343	MR	2023.1.0	60.04080373337148	NA
mr_images/4_a.png	mr_images/4_a_z_135.png	left	cw	135	NA	NA	NA	NA	0	19	19	105	390.7513073999434	NA	NA	NA	NA	391.3060253999429	391.3060253999429	left	1	2.048070300021209	NA	NA	zaa	001	2026-02-10_12h47.51.343	MR	2023.1.0	60.04080373337148	NA
mr_images/12_b.png	mr_images/12_b_z_135.png	left	cw	135	NA	NA	NA	NA	0	20	20	69	393.3718701999169	NA	NA	NA	NA	393.9009017999051	393.9009017999051	right	0	2.013204700080678	NA	NA	zaa	001	2026-02-10_12h47.51.343	MR	2023.1.0	60.04080373337148	NA
mr_images/1_a.png	mr_images/1_a_z_45.png	left	cw	45	NA	NA	NA	NA	0	21	21	1	395.93395939993206	NA	NA	NA	NA	396.50214469991624	396.50214469991624	left	1	1.6361587999854237	NA	NA	zaa	001	2026-02-10_12h47.51.343	MR	2023.1.0	60.04080373337148	NA
mr_images/11_a.png	mr_images/11_a_z_225.png	left	ccw	135	NA	NA	NA	NA	0	22	22	35	398.1670853999676	NA	NA	NA	NA	398.7503326999722	398.7503326999722	left	1	2.5712200000416487	NA	NA	zaa	001	2026-02-10_12h47.51.343	MR	2023.1.0	60.04080373337148	NA
mr_images/9_a.png	mr_images/9_a_z_45.png	left	cw	45	NA	NA	NA	NA	0	23	23	193	401.3500550999306	NA	NA	NA	NA	401.9330105999252	401.9330105999252	right	0	2.135688200010918	NA	NA	zaa	001	2026-02-10_12h47.51.343	MR	2023.1.0	60.04080373337148	NA
mr_images/7_a.png	mr_images/7_b_z_90.png	right	cw	90	NA	NA	NA	NA	0	24	24	172	404.09944229992107	NA	NA	NA	NA	404.6661734000081	404.6661734000081	right	1	2.3267168999882415	NA	NA	zaa	001	2026-02-10_12h47.51.343	MR	2023.1.0	60.04080373337148	NA
mr_images/5_b.png	mr_images/5_a_z_135.png	right	cw	135	NA	NA	NA	NA	0	25	25	140	407.01581969996914	NA	NA	NA	NA	407.6018512999872	407.6018512999872	left	0	3.0310441999463364	NA	NA	zaa	001	2026-02-10_12h47.51.343	MR	2023.1.0	60.04080373337148	NA
mr_images/4_b.png	mr_images/4_a_z_225.png	right	ccw	135	NA	NA	NA	NA	0	26	26	118	410.65280209993944	NA	NA	NA	NA	411.2151247999864	411.2151247999864	right	1	3.020771599956788	NA	NA	zaa	001	2026-02-10_12h47.51.343	MR	2023.1.0	60.04080373337148	NA
mr_images/3_a.png	mr_images/3_a_z_225.png	left	ccw	135	NA	NA	NA	NA	0	27	27	83	414.26469709991943	NA	NA	NA	NA	414.8313779999735	414.8313779999735	right	0	3.1577869000611827	NA	NA	zaa	001	2026-02-10_12h47.51.343	MR	2023.1.0	60.04080373337148	NA
mr_images/5_a.png	mr_images/5_a_z_45.png	left	cw	45	NA	NA	NA	NA	0	28	28	121	418.0141990999691	NA	NA	NA	NA	418.567779099918	418.567779099918	right	0	3.0946621999610215	NA	NA	zaa	001	2026-02-10_12h47.51.343	MR	2023.1.0	60.04080373337148	NA
mr_images/5_b.png	mr_images/5_a_z_315.png	right	ccw	45	NA	NA	NA	NA	0	29	29	134	421.6846229999792	NA	NA	NA	NA	NA	422.2643727000104	right	1	1.9270978999556976	NA	NA	zaa	001	2026-02-10_12h47.51.343	MR	2023.1.0	60.04080373337148	NA
mr_images/1_a.png	mr_images/1_b_z_90.png	right	cw	90	NA	NA	NA	NA	0	30	30	4	424.21340969996527	NA	NA	NA	NA	424.7798748000059	424.7798748000059	left	0	2.0381933000171557	NA	NA	zaa	001	2026-02-10_12h47.51.343	MR	2023.1.0	60.04080373337148	NA
mr_images/12_b.png	mr_images/12_a_z_45.png	right	cw	45	NA	NA	NA	NA	0	31	31	60	426.84703720000107	NA	NA	NA	NA	427.41293689992744	427.41293689992744	right	1	2.3840099000371993	NA	NA	zaa	001	2026-02-10_12h47.51.343	MR	2023.1.0	60.04080373337148	NA
mr_images/1_a.png	mr_images/1_b_z_270.png	right	ccw	90	NA	NA	NA	NA	0	32	32	6	429.8291875999421	NA	NA	NA	NA	430.3836212999886	430.3836212999886	left	0	2.008200400043279	NA	NA	zaa	001	2026-02-10_12h47.51.343	MR	2023.1.0	60.04080373337148	NA
mr_images/6_a.png	mr_images/6_a_z_90.png	left	cw	90	NA	NA	NA	NA	0	33	33	149	432.41646619990934	NA	NA	NA	NA	432.9636044999352	432.9636044999352	right	0	2.4399915999965742	NA	NA	zaa	001	2026-02-10_12h47.51.343	MR	2023.1.0	60.04080373337148	NA
mr_images/6_b.png	mr_images/6_b_z_135.png	left	cw	135	NA	NA	NA	NA	0	34	34	165	435.4284374999115	NA	NA	NA	NA	435.9951240000082	435.9951240000082	left	1	2.495576199959032	NA	NA	zaa	001	2026-02-10_12h47.51.343	MR	2023.1.0	60.04080373337148	NA
mr_images/9_a.png	mr_images/9_a_z_270.png	left	ccw	90	NA	NA	NA	NA	0	35	35	199	438.51134289999027	NA	NA	NA	NA	439.0779494999442	439.0779494999442	right	0	2.642022699932568	NA	NA	zaa	001	2026-02-10_12h47.51.343	MR	2023.1.0	60.04080373337148	NA
mr_images/11_a.png	mr_images/11_b_z_225.png	right	ccw	135	NA	NA	NA	NA	0	36	36	34	441.794235899928	NA	NA	NA	NA	NA	442.3486846999731	left	0	2.9725521999644116	NA	NA	zaa	001	2026-02-10_12h47.51.343	MR	2023.1.0	60.04080373337148	NA
mr_images/12_a.png	mr_images/12_a_z_135.png	left	cw	135	NA	NA	NA	NA	0	37	37	57	445.3479948999593	NA	NA	NA	NA	445.91044479992706	445.91044479992706	right	0	3.7029866999946535	NA	NA	zaa	001	2026-02-10_12h47.51.343	MR	2023.1.0	60.04080373337148	NA
mr_images/5_b.png	mr_images/5_b_z_135.png	left	cw	135	NA	NA	NA	NA	0	38	38	141	449.6431263999548	NA	NA	NA	NA	450.209814599948	450.209814599948	left	1	2.5690761000150815	NA	NA	zaa	001	2026-02-10_12h47.51.343	MR	2023.1.0	60.04080373337148	NA
mr_images/1_b.png	mr_images/1_a_z_315.png	right	ccw	45	NA	NA	NA	NA	0	39	39	14	452.8093331999844	NA	NA	NA	NA	453.3638973999769	453.3638973999769	left	0	2.590241999947466	NA	NA	zaa	001	2026-02-10_12h47.51.343	MR	2023.1.0	60.04080373337148	NA
mr_images/1_b.png	mr_images/1_b_z_45.png	left	cw	45	NA	NA	NA	NA	0	40	40	13	455.97989660000894	NA	NA	NA	NA	456.5472608999116	456.5472608999116	left	1	2.5824132000561804	NA	NA	zaa	001	2026-02-10_12h47.51.343	MR	2023.1.0	60.04080373337148	NA
mr_images/9_b.png	mr_images/9_b_z_90.png	left	cw	90	NA	NA	NA	NA	0	41	41	209	459.1460378000047	NA	NA	NA	NA	459.70823679992463	459.70823679992463	left	1	2.447156799957156	NA	NA	zaa	001	2026-02-10_12h47.51.343	MR	2023.1.0	60.04080373337148	NA
mr_images/4_a.png	mr_images/4_a_z_90.png	left	cw	90	NA	NA	NA	NA	0	42	42	101	462.1747063999064	NA	NA	NA	NA	462.70795680000447	462.70795680000447	left	1	2.38861840008758	NA	NA	zaa	001	2026-02-10_12h47.51.343	MR	2023.1.0	60.04080373337148	NA
mr_images/9_a.png	mr_images/9_b_z_315.png	right	ccw	45	NA	NA	NA	NA	0	43	43	194	465.12448389991187	NA	NA	NA	NA	465.69699179998133	465.69699179998133	left	0	2.3968126999679953	NA	NA	zaa	001	2026-02-10_12h47.51.343	MR	2023.1.0	60.04080373337148	NA
mr_images/9_a.png	mr_images/9_a_z_315.png	left	ccw	45	NA	NA	NA	NA	0	44	44	195	468.11148580000736	NA	NA	NA	NA	468.6738203999121	468.6738203999121	right	0	3.5575474000070244	NA	NA	zaa	001	2026-02-10_12h47.51.343	MR	2023.1.0	60.04080373337148	NA
mr_images/6_b.png	mr_images/6_b_z_315.png	left	ccw	45	NA	NA	NA	NA	0	45	45	159	472.25669309997465	NA	NA	NA	NA	472.828020399902	472.828020399902	right	0	2.92141100007575	NA	NA	zaa	001	2026-02-10_12h47.51.343	MR	2023.1.0	60.04080373337148	NA
mr_images/3_a.png	mr_images/3_b_z_225.png	right	ccw	135	NA	NA	NA	NA	0	46	46	82	475.77713019994553	NA	NA	NA	NA	476.3060876999516	476.3060876999516	left	0	3.1056268999818712	NA	NA	zaa	001	2026-02-10_12h47.51.343	MR	2023.1.0	60.04080373337148	NA
mr_images/6_a.png	mr_images/6_b_z_45.png	right	cw	45	NA	NA	NA	NA	0	47	47	144	479.4389656999847	NA	NA	NA	NA	480.0056137999054	480.0056137999054	left	0	3.773782199947163	NA	NA	zaa	001	2026-02-10_12h47.51.343	MR	2023.1.0	60.04080373337148	NA
mr_images/1_a.png	mr_images/1_b_z_315.png	right	ccw	45	NA	NA	NA	NA	0	48	48	2	483.805149099906	NA	NA	NA	NA	484.33829149999656	484.33829149999656	left	0	2.3882318000542	NA	NA	zaa	001	2026-02-10_12h47.51.343	MR	2023.1.0	60.04080373337148	NA
mr_images/4_b.png	mr_images/4_a_z_315.png	right	ccw	45	NA	NA	NA	NA	0	49	49	110	486.75475289998576	NA	NA	NA	NA	487.309498299961	487.309498299961	left	0	1.6967273999471215	NA	NA	zaa	001	2026-02-10_12h47.51.343	MR	2023.1.0	60.04080373337148	NA
mr_images/6_a.png	mr_images/6_b_z_90.png	right	cw	90	NA	NA	NA	NA	0	50	50	148	489.02530689991545	NA	NA	NA	NA	489.58822479995433	489.58822479995433	right	1	3.316359999938868	NA	NA	zaa	001	2026-02-10_12h47.51.343	MR	2023.1.0	60.04080373337148	NA
mr_images/5_a.png	mr_images/5_b_z_135.png	right	cw	135	NA	NA	NA	NA	0	51	51	128	492.9371834999183	NA	NA	NA	NA	493.47043109999504	493.47043109999504	right	1	3.4034168000798672	NA	NA	zaa	001	2026-02-10_12h47.51.343	MR	2023.1.0	60.04080373337148	NA
mr_images/7_b.png	mr_images/7_b_z_45.png	left	cw	45	NA	NA	NA	NA	0	52	52	181	496.90321059990674	NA	NA	NA	NA	497.46983729989734	497.46983729989734	right	0	3.652537400019355	NA	NA	zaa	001	2026-02-10_12h47.51.343	MR	2023.1.0	60.04080373337148	NA
mr_images/1_b.png	mr_images/1_a_z_45.png	right	cw	45	NA	NA	NA	NA	0	53	53	12	501.1527104999405	NA	NA	NA	NA	501.68590429995675	501.68590429995675	right	1	3.4635482999728993	NA	NA	zaa	001	2026-02-10_12h47.51.343	MR	2023.1.0	60.04080373337148	NA
mr_images/7_b.png	mr_images/7_a_z_135.png	right	cw	135	NA	NA	NA	NA	0	54	54	188	505.1687533999793	NA	NA	NA	NA	505.7221972999396	505.7221972999396	left	0	2.58276559994556	NA	NA	zaa	001	2026-02-10_12h47.51.343	MR	2023.1.0	60.04080373337148	NA
mr_images/11_b.png	mr_images/11_a_z_270.png	right	ccw	90	NA	NA	NA	NA	0	55	55	42	508.3225902999984	NA	NA	NA	NA	508.8866033999948	508.8866033999948	left	0	3.1766366000520065	NA	NA	zaa	001	2026-02-10_12h47.51.343	MR	2023.1.0	60.04080373337148	NA
mr_images/1_a.png	mr_images/1_b_z_135.png	right	cw	135	NA	NA	NA	NA	0	56	56	8	512.0887236999115	NA	NA	NA	NA	512.6511341999285	512.6511341999285	left	0	2.9288392999442294	NA	NA	zaa	001	2026-02-10_12h47.51.343	MR	2023.1.0	60.04080373337148	NA
mr_images/4_a.png	mr_images/4_a_z_315.png	left	ccw	45	NA	NA	NA	NA	0	57	57	99	515.6006705999607	NA	NA	NA	NA	516.1340812999988	516.1340812999988	right	0	3.0988940000534058	NA	NA	zaa	001	2026-02-10_12h47.51.343	MR	2023.1.0	60.04080373337148	NA
mr_images/4_b.png	mr_images/4_b_z_225.png	left	ccw	135	NA	NA	NA	NA	0	58	58	119	519.2501604999416	NA	NA	NA	NA	519.8182279999601	519.8182279999601	right	0	2.9996964999008924	NA	NA	zaa	001	2026-02-10_12h47.51.343	MR	2023.1.0	60.04080373337148	NA
mr_images/5_b.png	mr_images/5_b_z_90.png	left	cw	90	NA	NA	NA	NA	0	59	59	137	522.8496320999693	NA	NA	NA	NA	523.382876199903	523.382876199903	left	1	2.6101315000560135	NA	NA	zaa	001	2026-02-10_12h47.51.343	MR	2023.1.0	60.04080373337148	NA
mr_images/4_b.png	mr_images/4_a_z_135.png	right	cw	135	NA	NA	NA	NA	0	60	60	116	526.0158673999831	NA	NA	NA	NA	526.5491163999541	526.5491163999541	left	0	1.7874323999276385	NA	NA	zaa	001	2026-02-10_12h47.51.343	MR	2023.1.0	60.04080373337148	NA
mr_images/5_a.png	mr_images/5_b_z_270.png	right	ccw	90	NA	NA	NA	NA	0	61	61	126	528.3655205999967	NA	NA	NA	NA	528.917788599967	528.917788599967	left	0	2.293827399960719	NA	NA	zaa	001	2026-02-10_12h47.51.343	MR	2023.1.0	60.04080373337148	NA
mr_images/7_a.png	mr_images/7_b_z_45.png	right	cw	45	NA	NA	NA	NA	0	62	62	168	531.2361315999879	NA	NA	NA	NA	NA	531.7817506999709	left	0	3.5030755000188947	NA	NA	zaa	001	2026-02-10_12h47.51.343	MR	2023.1.0	60.04080373337148	NA
mr_images/9_a.png	mr_images/9_b_z_135.png	right	cw	135	NA	NA	NA	NA	0	63	63	200	535.3147439999739	NA	NA	NA	NA	535.868532499997	535.868532499997	right	1	3.514582599978894	NA	NA	zaa	001	2026-02-10_12h47.51.343	MR	2023.1.0	60.04080373337148	NA
mr_images/3_b.png	mr_images/3_a_z_45.png	right	cw	45	NA	NA	NA	NA	0	64	64	84	539.4015963999555	NA	NA	NA	NA	539.9474381000036	539.9474381000036	left	0	3.988123300019652	NA	NA	zaa	001	2026-02-10_12h47.51.343	MR	2023.1.0	60.04080373337148	NA
mr_images/11_b.png	mr_images/11_a_z_225.png	right	ccw	135	NA	NA	NA	NA	0	65	65	46	543.9633269999176	NA	NA	NA	NA	544.4968317999737	544.4968317999737	right	1	4.08340679993853	NA	NA	zaa	001	2026-02-10_12h47.51.343	MR	2023.1.0	60.04080373337148	NA
mr_images/1_a.png	mr_images/1_a_z_225.png	left	ccw	135	NA	NA	NA	NA	0	66	66	11	548.6127887999173	NA	NA	NA	NA	549.1793598999502	549.1793598999502	left	1	2.974904099944979	NA	NA	zaa	001	2026-02-10_12h47.51.343	MR	2023.1.0	60.04080373337148	NA
mr_images/3_a.png	mr_images/3_a_z_270.png	left	ccw	90	NA	NA	NA	NA	0	67	67	79	552.1789336999645	NA	NA	NA	NA	552.7288447999163	552.7288447999163	right	0	3.419493699911982	NA	NA	zaa	001	2026-02-10_12h47.51.343	MR	2023.1.0	60.04080373337148	NA
mr_images/1_a.png	mr_images/1_b_z_225.png	right	ccw	135	NA	NA	NA	NA	0	68	68	10	556.1784523999086	NA	NA	NA	NA	556.7330930999015	556.7330930999015	left	0	2.64339820004534	NA	NA	zaa	001	2026-02-10_12h47.51.343	MR	2023.1.0	60.04080373337148	NA
mr_images/11_b.png	mr_images/11_b_z_45.png	left	cw	45	NA	NA	NA	NA	0	69	69	37	559.3988495999947	NA	NA	NA	NA	559.9612726999912	559.9612726999912	right	0	3.5688628000207245	NA	NA	zaa	001	2026-02-10_12h47.51.343	MR	2023.1.0	60.04080373337148	NA
mr_images/11_a.png	mr_images/11_b_z_270.png	right	ccw	90	NA	NA	NA	NA	0	70	70	30	563.5606780999806	NA	NA	NA	NA	564.1274658999173	564.1274658999173	left	0	3.1662966000149027	NA	NA	zaa	001	2026-02-10_12h47.51.343	MR	2023.1.0	60.04080373337148	NA
mr_images/5_a.png	mr_images/5_b_z_45.png	right	cw	45	NA	NA	NA	NA	0	71	71	120	567.3102655999828	NA	NA	NA	NA	567.8934948999668	567.8934948999668	right	1	3.278575100004673	NA	NA	zaa	001	2026-02-10_12h47.51.343	MR	2023.1.0	60.04080373337148	NA
mr_images/6_b.png	mr_images/6_a_z_315.png	right	ccw	45	NA	NA	NA	NA	0	72	72	158	571.1928975000046	NA	NA	NA	NA	571.742807899951	571.742807899951	left	0	1.3590936999535188	NA	NA	zaa	001	2026-02-10_12h47.51.343	MR	2023.1.0	60.04080373337148	NA
mr_images/7_b.png	mr_images/7_a_z_270.png	right	ccw	90	NA	NA	NA	NA	0	73	73	186	573.1260940999491	NA	NA	NA	NA	573.6926453999477	573.6926453999477	left	0	2.066596499993466	NA	NA	zaa	001	2026-02-10_12h47.51.343	MR	2023.1.0	60.04080373337148	NA
mr_images/4_a.png	mr_images/4_b_z_270.png	right	ccw	90	NA	NA	NA	NA	0	74	74	102	575.7757951999083	NA	NA	NA	NA	576.3310313000111	576.3310313000111	left	0	2.75271930010058	NA	NA	zaa	001	2026-02-10_12h47.51.343	MR	2023.1.0	60.04080373337148	NA
mr_images/6_b.png	mr_images/6_a_z_135.png	right	cw	135	NA	NA	NA	NA	0	75	75	164	579.1127600999316	NA	NA	NA	NA	579.6750786999473	579.6750786999473	left	0	3.164133899961598	NA	NA	zaa	001	2026-02-10_12h47.51.343	MR	2023.1.0	60.04080373337148	NA
mr_images/5_b.png	mr_images/5_b_z_225.png	left	ccw	135	NA	NA	NA	NA	0	76	76	143	582.8581330999732	NA	NA	NA	NA	583.4245475999778	583.4245475999778	right	0	4.173863100004382	NA	NA	zaa	001	2026-02-10_12h47.51.343	MR	2023.1.0	60.04080373337148	NA
mr_images/9_b.png	mr_images/9_a_z_45.png	right	cw	45	NA	NA	NA	NA	0	77	77	204	587.6240258999169	NA	NA	NA	NA	588.1573376999004	588.1573376999004	left	0	2.8116920000175014	NA	NA	zaa	001	2026-02-10_12h47.51.343	MR	2023.1.0	60.04080373337148	NA
mr_images/5_b.png	mr_images/5_b_z_315.png	left	ccw	45	NA	NA	NA	NA	0	78	78	135	590.9902058999287	NA	NA	NA	NA	591.5584398999345	591.5584398999345	right	0	3.3058455999707803	NA	NA	zaa	001	2026-02-10_12h47.51.343	MR	2023.1.0	60.04080373337148	NA
mr_images/6_b.png	mr_images/6_a_z_90.png	right	cw	90	NA	NA	NA	NA	0	79	79	160	594.8897173999576	NA	NA	NA	NA	595.4228979999898	595.4228979999898	left	0	2.0993474000133574	NA	NA	zaa	001	2026-02-10_12h47.51.343	MR	2023.1.0	60.04080373337148	NA
mr_images/4_b.png	mr_images/4_b_z_90.png	left	cw	90	NA	NA	NA	NA	0	80	80	113	597.5393459999468	NA	NA	NA	NA	598.0767593999626	598.0767593999626	right	0	3.342044400051236	NA	NA	zaa	001	2026-02-10_12h47.51.343	MR	2023.1.0	60.04080373337148	NA
mr_images/12_b.png	mr_images/12_a_z_135.png	right	cw	135	NA	NA	NA	NA	0	81	81	68	601.4430192	NA	NA	NA	NA	601.9719416999724	601.9719416999724	left	0	3.8998265999834985	NA	NA	zaa	001	2026-02-10_12h47.51.343	MR	2023.1.0	60.04080373337148	NA
mr_images/6_b.png	mr_images/6_a_z_45.png	right	cw	45	NA	NA	NA	NA	0	82	82	156	605.8880802999483	NA	NA	NA	NA	606.4438718999736	606.4438718999736	left	0	2.8851970999967307	NA	NA	zaa	001	2026-02-10_12h47.51.343	MR	2023.1.0	60.04080373337148	NA
mr_images/3_a.png	mr_images/3_a_z_45.png	left	cw	45	NA	NA	NA	NA	0	83	83	73	609.3586193999508	NA	NA	NA	NA	609.8874202999286	609.8874202999286	right	0	2.8594177999766544	NA	NA	zaa	001	2026-02-10_12h47.51.343	MR	2023.1.0	60.04080373337148	NA
mr_images/11_a.png	mr_images/11_b_z_135.png	right	cw	135	NA	NA	NA	NA	0	84	84	32	612.7704327999381	NA	NA	NA	NA	613.3372127999319	613.3372127999319	right	1	3.3441266999579966	NA	NA	zaa	001	2026-02-10_12h47.51.343	MR	2023.1.0	60.04080373337148	NA
mr_images/3_b.png	mr_images/3_b_z_90.png	left	cw	90	NA	NA	NA	NA	0	85	85	89	616.7032694999361	NA	NA	NA	NA	617.2700766999042	617.2700766999042	left	1	3.566729399957694	NA	NA	zaa	001	2026-02-10_12h47.51.343	MR	2023.1.0	60.04080373337148	NA
mr_images/12_b.png	mr_images/12_a_z_315.png	right	ccw	45	NA	NA	NA	NA	0	86	86	62	620.8695401999867	NA	NA	NA	NA	621.4238566999556	621.4238566999556	left	0	1.1669042999856174	NA	NA	zaa	001	2026-02-10_12h47.51.343	MR	2023.1.0	60.04080373337148	NA
mr_images/1_b.png	mr_images/1_a_z_135.png	right	cw	135	NA	NA	NA	NA	0	87	87	20	622.6067840999458	NA	NA	NA	NA	623.1688431999646	623.1688431999646	left	0	1.4681005999445915	NA	NA	zaa	001	2026-02-10_12h47.51.343	MR	2023.1.0	60.04080373337148	NA
mr_images/9_a.png	mr_images/9_b_z_270.png	right	ccw	90	NA	NA	NA	NA	0	88	88	198	624.6688513999106	NA	NA	NA	NA	625.2355513999937	625.2355513999937	left	0	1.7747328000841662	NA	NA	zaa	001	2026-02-10_12h47.51.343	MR	2023.1.0	60.04080373337148	NA
mr_images/7_a.png	mr_images/7_a_z_135.png	left	cw	135	NA	NA	NA	NA	0	89	89	177	627.0352101000026	NA	NA	NA	NA	627.568475499982	627.568475499982	right	0	3.3620884999400005	NA	NA	zaa	001	2026-02-10_12h47.51.343	MR	2023.1.0	60.04080373337148	NA
mr_images/3_b.png	mr_images/3_a_z_225.png	right	ccw	135	NA	NA	NA	NA	0	90	90	94	630.9512778999051	NA	NA	NA	NA	631.4846943999873	631.4846943999873	left	0	2.784810500103049	NA	NA	zaa	001	2026-02-10_12h47.51.343	MR	2023.1.0	60.04080373337148	NA
mr_images/1_b.png	mr_images/1_b_z_90.png	left	cw	90	NA	NA	NA	NA	0	91	91	17	634.3008871999336	NA	NA	NA	NA	634.8341471999884	634.8341471999884	right	0	2.5226309000281617	NA	NA	zaa	001	2026-02-10_12h47.51.343	MR	2023.1.0	60.04080373337148	NA
mr_images/3_a.png	mr_images/3_b_z_270.png	right	ccw	90	NA	NA	NA	NA	0	92	92	78	637.3836823999882	NA	NA	NA	NA	637.9503961999435	637.9503961999435	left	0	1.8678291999967769	NA	NA	zaa	001	2026-02-10_12h47.51.343	MR	2023.1.0	60.04080373337148	NA
mr_images/6_a.png	mr_images/6_a_z_45.png	left	cw	45	NA	NA	NA	NA	0	93	93	145	639.8500840999186	NA	NA	NA	NA	640.3832669999683	640.3832669999683	right	0	2.861176299978979	NA	NA	zaa	001	2026-02-10_12h47.51.343	MR	2023.1.0	60.04080373337148	NA
mr_images/12_b.png	mr_images/12_b_z_270.png	left	ccw	90	NA	NA	NA	NA	0	94	94	67	643.2662463999586	NA	NA	NA	NA	643.7995394999161	643.7995394999161	right	0	3.447692499961704	NA	NA	zaa	001	2026-02-10_12h47.51.343	MR	2023.1.0	60.04080373337148	NA
mr_images/3_b.png	mr_images/3_a_z_90.png	right	cw	90	NA	NA	NA	NA	0	95	95	88	647.2657344999025	NA	NA	NA	NA	647.8490095000016	647.8490095000016	left	0	3.586794600007124	NA	NA	zaa	001	2026-02-10_12h47.51.343	MR	2023.1.0	60.04080373337148	NA
mr_images/11_a.png	mr_images/11_a_z_90.png	left	cw	90	NA	NA	NA	NA	0	96	96	29	651.465104999952	NA	NA	NA	NA	652.0317014999455	652.0317014999455	right	0	3.663745299912989	NA	NA	zaa	001	2026-02-10_12h47.51.343	MR	2023.1.0	60.04080373337148	NA
mr_images/11_a.png	mr_images/11_b_z_90.png	right	cw	90	NA	NA	NA	NA	0	97	97	28	655.7145172999008	NA	NA	NA	NA	656.2660690000048	656.2660690000048	right	1	2.779388399911113	NA	NA	zaa	001	2026-02-10_12h47.51.343	MR	2023.1.0	60.04080373337148	NA
mr_images/3_a.png	mr_images/3_b_z_90.png	right	cw	90	NA	NA	NA	NA	0	98	98	76	659.0640348999295	NA	NA	NA	NA	659.5974012999795	659.5974012999795	right	1	2.6943770999787375	NA	NA	zaa	001	2026-02-10_12h47.51.343	MR	2023.1.0	60.04080373337148	NA
mr_images/9_b.png	mr_images/9_b_z_225.png	left	ccw	135	NA	NA	NA	NA	0	99	99	215	662.3136444999836	NA	NA	NA	NA	662.8803662999999	662.8803662999999	left	1	3.818736399989575	NA	NA	zaa	001	2026-02-10_12h47.51.343	MR	2023.1.0	60.04080373337148	NA
mr_images/3_b.png	mr_images/3_b_z_270.png	left	ccw	90	NA	NA	NA	NA	0	100	100	91	666.7297067999607	NA	NA	NA	NA	667.2639706999762	667.2639706999762	right	0	2.308783399988897	NA	NA	zaa	001	2026-02-10_12h47.51.343	MR	2023.1.0	60.04080373337148	NA
mr_images/1_a.png	mr_images/1_a_z_270.png	left	ccw	90	NA	NA	NA	NA	0	101	101	7	669.5959493999835	NA	NA	NA	NA	670.1625898999628	670.1625898999628	right	0	2.7179496000753716	NA	NA	zaa	001	2026-02-10_12h47.51.343	MR	2023.1.0	60.04080373337148	NA
mr_images/1_b.png	mr_images/1_b_z_270.png	left	ccw	90	NA	NA	NA	NA	0	102	102	19	672.9122052999446	NA	NA	NA	NA	673.4453829999547	673.4453829999547	right	0	2.5033578999573365	NA	NA	zaa	001	2026-02-10_12h47.51.343	MR	2023.1.0	60.04080373337148	NA
mr_images/3_a.png	mr_images/3_a_z_315.png	left	ccw	45	NA	NA	NA	NA	0	103	103	75	675.9784149999032	NA	NA	NA	NA	676.545158599969	676.545158599969	right	0	2.825239000027068	NA	NA	zaa	001	2026-02-10_12h47.51.343	MR	2023.1.0	60.04080373337148	NA
mr_images/4_a.png	mr_images/4_b_z_45.png	right	cw	45	NA	NA	NA	NA	0	104	104	96	679.3945209999802	NA	NA	NA	NA	679.9611803999869	679.9611803999869	left	0	2.0016931999707595	NA	NA	zaa	001	2026-02-10_12h47.51.343	MR	2023.1.0	60.04080373337148	NA
mr_images/11_a.png	mr_images/11_a_z_45.png	left	cw	45	NA	NA	NA	NA	0	105	105	25	681.9942620999645	NA	NA	NA	NA	682.5609028999461	682.5609028999461	right	0	2.91452059999574	NA	NA	zaa	001	2026-02-10_12h47.51.343	MR	2023.1.0	60.04080373337148	NA
mr_images/11_b.png	mr_images/11_b_z_135.png	left	cw	135	NA	NA	NA	NA	0	106	106	45	685.4938884999137	NA	NA	NA	NA	686.0269071999937	686.0269071999937	right	0	3.1164517999859527	NA	NA	zaa	001	2026-02-10_12h47.51.343	MR	2023.1.0	60.04080373337148	NA
mr_images/1_a.png	mr_images/1_a_z_315.png	left	ccw	45	NA	NA	NA	NA	0	107	107	3	689.1598692999687	NA	NA	NA	NA	689.693196499953	689.693196499953	left	1	1.6652936999453232	NA	NA	zaa	001	2026-02-10_12h47.51.343	MR	2023.1.0	60.04080373337148	NA
mr_images/11_b.png	mr_images/11_b_z_315.png	left	ccw	45	NA	NA	NA	NA	0	108	108	39	691.3764113999205	NA	NA	NA	NA	691.9428177999798	691.9428177999798	right	0	3.1450970000587404	NA	NA	zaa	001	2026-02-10_12h47.51.343	MR	2023.1.0	60.04080373337148	NA
mr_images/12_a.png	mr_images/12_b_z_315.png	right	ccw	45	NA	NA	NA	NA	0	109	109	50	695.1092734999256	NA	NA	NA	NA	695.6769965999993	695.6769965999993	left	0	0.8560765000293031	NA	NA	zaa	001	2026-02-10_12h47.51.343	MR	2023.1.0	60.04080373337148	NA
mr_images/11_a.png	mr_images/11_b_z_315.png	right	ccw	45	NA	NA	NA	NA	0	110	110	26	696.5588283999823	NA	NA	NA	NA	697.0921515999362	697.0921515999362	left	0	0.949226600001566	NA	NA	zaa	001	2026-02-10_12h47.51.343	MR	2023.1.0	60.04080373337148	NA
mr_images/12_a.png	mr_images/12_a_z_315.png	left	ccw	45	NA	NA	NA	NA	0	111	111	51	698.0586311999941	NA	NA	NA	NA	698.5918051999761	698.5918051999761	right	0	1.9634916000068188	NA	NA	zaa	001	2026-02-10_12h47.51.343	MR	2023.1.0	60.04080373337148	NA
mr_images/11_b.png	mr_images/11_b_z_270.png	left	ccw	90	NA	NA	NA	NA	0	112	112	43	700.5751135000028	NA	NA	NA	NA	701.1083068998996	701.1083068998996	right	0	2.4311470000538975	NA	NA	zaa	001	2026-02-10_12h47.51.343	MR	2023.1.0	60.04080373337148	NA
mr_images/12_b.png	mr_images/12_b_z_90.png	left	cw	90	NA	NA	NA	NA	0	113	113	65	703.5579480999149	NA	NA	NA	NA	704.1245347999502	704.1245347999502	left	1	2.852854200056754	NA	NA	zaa	001	2026-02-10_12h47.51.343	MR	2023.1.0	60.04080373337148	NA
mr_images/3_a.png	mr_images/3_b_z_45.png	right	cw	45	NA	NA	NA	NA	0	114	114	72	707.0074723999714	NA	NA	NA	NA	707.5740271999966	707.5740271999966	left	0	2.168502900050953	NA	NA	zaa	001	2026-02-10_12h47.51.343	MR	2023.1.0	60.04080373337148	NA
mr_images/6_a.png	mr_images/6_a_z_135.png	left	cw	135	NA	NA	NA	NA	0	115	115	153	709.7737644999288	NA	NA	NA	NA	710.2929386999458	710.2929386999458	right	0	2.8247575000859797	NA	NA	zaa	001	2026-02-10_12h47.51.343	MR	2023.1.0	60.04080373337148	NA
mr_images/4_b.png	mr_images/4_b_z_135.png	left	cw	135	NA	NA	NA	NA	0	116	116	117	713.144144599908	NA	NA	NA	NA	713.706351300003	713.706351300003	right	0	4.008015100029297	NA	NA	zaa	001	2026-02-10_12h47.51.343	MR	2023.1.0	60.04080373337148	NA
mr_images/9_b.png	mr_images/9_a_z_225.png	right	ccw	135	NA	NA	NA	NA	0	117	117	214	717.7392181999749	NA	NA	NA	NA	718.3059456999181	718.3059456999181	left	0	3.907968399929814	NA	NA	zaa	001	2026-02-10_12h47.51.343	MR	2023.1.0	60.04080373337148	NA
mr_images/9_b.png	mr_images/9_b_z_270.png	left	ccw	90	NA	NA	NA	NA	0	118	118	211	722.2386425998993	NA	NA	NA	NA	722.7718639000086	722.7718639000086	right	0	2.2613327000290155	NA	NA	zaa	001	2026-02-10_12h47.51.343	MR	2023.1.0	60.04080373337148	NA
mr_images/11_b.png	mr_images/11_a_z_90.png	right	cw	90	NA	NA	NA	NA	0	119	119	40	725.0548789999448	NA	NA	NA	NA	725.5882096999558	725.5882096999558	left	0	3.7066318000433967	NA	NA	zaa	001	2026-02-10_12h47.51.343	MR	2023.1.0	60.04080373337148	NA
mr_images/9_a.png	mr_images/9_b_z_90.png	right	cw	90	NA	NA	NA	NA	0	120	120	196	729.3210189999081	NA	NA	NA	NA	729.8542715999065	729.8542715999065	None	0	NA	NA	NA	zaa	001	2026-02-10_12h47.51.343	MR	2023.1.0	60.04080373337148	NA
mr_images/12_a.png	mr_images/12_b_z_45.png	right	cw	45	NA	NA	NA	NA	0	121	121	48	734.8369732999709	NA	NA	NA	NA	NA	735.3903830999043	right	1	1.9490556000964716	NA	NA	zaa	001	2026-02-10_12h47.51.343	MR	2023.1.0	60.04080373337148	NA
mr_images/7_b.png	mr_images/7_b_z_225.png	left	ccw	135	NA	NA	NA	NA	0	122	122	191	737.3574857999338	NA	NA	NA	NA	737.8863950999221	737.8863950999221	right	0	1.9738312000408769	NA	NA	zaa	001	2026-02-10_12h47.51.343	MR	2023.1.0	60.04080373337148	NA
mr_images/5_b.png	mr_images/5_b_z_45.png	left	cw	45	NA	NA	NA	NA	0	123	123	133	739.8861642999109	NA	NA	NA	NA	740.4195577999344	740.4195577999344	right	0	2.245730899972841	NA	NA	zaa	001	2026-02-10_12h47.51.343	MR	2023.1.0	60.04080373337148	NA
mr_images/1_b.png	mr_images/1_a_z_225.png	right	ccw	135	NA	NA	NA	NA	0	124	124	22	742.6858299999731	NA	NA	NA	NA	743.2190378999803	743.2190378999803	left	0	2.6047671999549493	NA	NA	zaa	001	2026-02-10_12h47.51.343	MR	2023.1.0	60.04080373337148	NA
mr_images/4_b.png	mr_images/4_a_z_270.png	right	ccw	90	NA	NA	NA	NA	0	125	125	114	745.8520185999805	NA	NA	NA	NA	746.4186906999676	746.4186906999676	left	0	1.627009900053963	NA	NA	zaa	001	2026-02-10_12h47.51.343	MR	2023.1.0	60.04080373337148	NA
mr_images/4_a.png	mr_images/4_a_z_225.png	left	ccw	135	NA	NA	NA	NA	0	126	126	107	748.0683391999919	NA	NA	NA	NA	748.6016121999128	748.6016121999128	right	0	1.8437478999840096	NA	NA	zaa	001	2026-02-10_12h47.51.343	MR	2023.1.0	60.04080373337148	NA
mr_images/7_b.png	mr_images/7_b_z_270.png	left	ccw	90	NA	NA	NA	NA	0	127	127	187	750.4680763999932	NA	NA	NA	NA	751.0352890999056	751.0352890999056	right	0	2.9864442000398412	NA	NA	zaa	001	2026-02-10_12h47.51.343	MR	2023.1.0	60.04080373337148	NA
mr_images/12_b.png	mr_images/12_b_z_45.png	left	cw	45	NA	NA	NA	NA	0	128	128	61	754.0508633999852	NA	NA	NA	NA	754.5841548999306	754.5841548999306	left	1	2.727828200091608	NA	NA	zaa	001	2026-02-10_12h47.51.343	MR	2023.1.0	60.04080373337148	NA
mr_images/4_a.png	mr_images/4_b_z_135.png	right	cw	135	NA	NA	NA	NA	0	129	129	104	757.3337627999717	NA	NA	NA	NA	757.8667214999441	757.8667214999441	left	0	1.493439199985005	NA	NA	zaa	001	2026-02-10_12h47.51.343	MR	2023.1.0	60.04080373337148	NA
mr_images/11_b.png	mr_images/11_b_z_90.png	left	cw	90	NA	NA	NA	NA	0	130	130	41	759.3834739999147	NA	NA	NA	NA	759.9167820999864	759.9167820999864	right	0	2.664645699900575	NA	NA	zaa	001	2026-02-10_12h47.51.343	MR	2023.1.0	60.04080373337148	NA
mr_images/6_a.png	mr_images/6_a_z_315.png	left	ccw	45	NA	NA	NA	NA	0	131	131	147	762.5998637999874	NA	NA	NA	NA	763.1330032999394	763.1330032999394	right	0	1.6249517999822274	NA	NA	zaa	001	2026-02-10_12h47.51.343	MR	2023.1.0	60.04080373337148	NA
mr_images/12_b.png	mr_images/12_a_z_270.png	right	ccw	90	NA	NA	NA	NA	0	132	132	66	764.7827131999657	NA	NA	NA	NA	765.3546195999952	765.3546195999952	left	0	2.1813381999963894	NA	NA	zaa	001	2026-02-10_12h47.51.343	MR	2023.1.0	60.04080373337148	NA
mr_images/5_a.png	mr_images/5_a_z_270.png	left	ccw	90	NA	NA	NA	NA	0	133	133	127	767.5532237999141	NA	NA	NA	NA	768.115603699931	768.115603699931	left	1	2.195033499971032	NA	NA	zaa	001	2026-02-10_12h47.51.343	MR	2023.1.0	60.04080373337148	NA
mr_images/12_a.png	mr_images/12_a_z_270.png	left	ccw	90	NA	NA	NA	NA	0	134	134	55	770.3319920999929	NA	NA	NA	NA	770.8653610999463	770.8653610999463	left	1	1.7748008000198752	NA	NA	zaa	001	2026-02-10_12h47.51.343	MR	2023.1.0	60.04080373337148	NA
mr_images/5_b.png	mr_images/5_a_z_225.png	right	ccw	135	NA	NA	NA	NA	0	135	135	142	772.6649511998985	NA	NA	NA	NA	773.198319899966	773.198319899966	left	0	1.955988699919544	NA	NA	zaa	001	2026-02-10_12h47.51.343	MR	2023.1.0	60.04080373337148	NA
mr_images/12_a.png	mr_images/12_a_z_45.png	left	cw	45	NA	NA	NA	NA	0	136	136	49	775.1814020999009	NA	NA	NA	NA	775.7145237999503	775.7145237999503	left	1	2.6916744000045583	NA	NA	zaa	001	2026-02-10_12h47.51.343	MR	2023.1.0	60.04080373337148	NA
mr_images/9_a.png	mr_images/9_b_z_225.png	right	ccw	135	NA	NA	NA	NA	0	137	137	202	778.4307967999484	NA	NA	NA	NA	778.9642449999228	778.9642449999228	left	0	3.044003600021824	NA	NA	zaa	001	2026-02-10_12h47.51.343	MR	2023.1.0	60.04080373337148	NA
mr_images/9_a.png	mr_images/9_a_z_225.png	left	ccw	135	NA	NA	NA	NA	0	138	138	203	782.0303497998975	NA	NA	NA	NA	782.5636464999989	782.5636464999989	left	1	2.12851429998409	NA	NA	zaa	001	2026-02-10_12h47.51.343	MR	2023.1.0	60.04080373337148	NA
mr_images/7_a.png	mr_images/7_a_z_45.png	left	cw	45	NA	NA	NA	NA	0	139	139	169	784.713478099904	NA	NA	NA	NA	785.2466506999917	785.2466506999917	right	0	4.231231999932788	NA	NA	zaa	001	2026-02-10_12h47.51.343	MR	2023.1.0	60.04080373337148	NA
mr_images/3_b.png	mr_images/3_a_z_315.png	right	ccw	45	NA	NA	NA	NA	0	140	140	86	789.4961164999986	NA	NA	NA	NA	790.0291944999481	790.0291944999481	left	0	1.4681869000196457	NA	NA	zaa	001	2026-02-10_12h47.51.343	MR	2023.1.0	60.04080373337148	NA
mr_images/5_a.png	mr_images/5_a_z_315.png	left	ccw	45	NA	NA	NA	NA	0	141	141	123	791.5290742999641	NA	NA	NA	NA	792.0623299999861	792.0623299999861	right	0	2.196588599937968	NA	NA	zaa	001	2026-02-10_12h47.51.343	MR	2023.1.0	60.04080373337148	NA
mr_images/5_b.png	mr_images/5_a_z_90.png	right	cw	90	NA	NA	NA	NA	0	142	142	136	794.2787259999895	NA	NA	NA	NA	794.8452342000091	794.8452342000091	left	0	1.957316300016828	NA	NA	zaa	001	2026-02-10_12h47.51.343	MR	2023.1.0	60.04080373337148	NA
mr_images/12_b.png	mr_images/12_a_z_90.png	right	cw	90	NA	NA	NA	NA	0	143	143	64	796.8285230000038	NA	NA	NA	NA	797.3948696999578	797.3948696999578	left	0	2.699266899959184	NA	NA	zaa	001	2026-02-10_12h47.51.343	MR	2023.1.0	60.04080373337148	NA
mr_images/1_b.png	mr_images/1_a_z_90.png	right	cw	90	NA	NA	NA	NA	0	144	144	16	800.1112950999523	NA	NA	NA	NA	800.6443172999425	800.6443172999425	left	0	3.3208331000059843	NA	NA	zaa	001	2026-02-10_12h47.51.343	MR	2023.1.0	60.04080373337148	NA
mr_images/7_b.png	mr_images/7_b_z_315.png	left	ccw	45	NA	NA	NA	NA	0	145	145	183	803.9939348999178	NA	NA	NA	NA	804.5303870999487	804.5303870999487	right	0	1.7277280000271276	NA	NA	zaa	001	2026-02-10_12h47.51.343	MR	2023.1.0	60.04080373337148	NA
mr_images/7_b.png	mr_images/7_a_z_45.png	right	cw	45	NA	NA	NA	NA	0	146	146	180	806.2813992999727	NA	NA	NA	NA	806.8101831999375	806.8101831999375	left	0	2.2044194999616593	NA	NA	zaa	001	2026-02-10_12h47.51.343	MR	2023.1.0	60.04080373337148	NA
mr_images/6_b.png	mr_images/6_a_z_270.png	right	ccw	90	NA	NA	NA	NA	0	147	147	162	809.0432802999858	NA	NA	NA	NA	809.6098355998984	809.6098355998984	left	0	2.1491356999613345	NA	NA	zaa	001	2026-02-10_12h47.51.343	MR	2023.1.0	60.04080373337148	NA
mr_images/1_b.png	mr_images/1_b_z_225.png	left	ccw	135	NA	NA	NA	NA	0	148	148	23	811.7762671000091	NA	NA	NA	NA	812.3094413999934	812.3094413999934	right	0	2.6580207999795675	NA	NA	zaa	001	2026-02-10_12h47.51.343	MR	2023.1.0	60.04080373337148	NA
mr_images/11_a.png	mr_images/11_a_z_315.png	left	ccw	45	NA	NA	NA	NA	0	149	149	27	814.9923840999836	NA	NA	NA	NA	815.5257098999573	815.5257098999573	left	1	3.343417100026272	NA	NA	zaa	001	2026-02-10_12h47.51.343	MR	2023.1.0	60.04080373337148	NA
mr_images/4_a.png	mr_images/4_b_z_315.png	right	ccw	45	NA	NA	NA	NA	0	150	150	98	818.8919126999099	NA	NA	NA	NA	819.4469672999112	819.4469672999112	left	0	1.1630005000624806	NA	NA	zaa	001	2026-02-10_12h47.51.343	MR	2023.1.0	60.04080373337148	NA
mr_images/6_b.png	mr_images/6_b_z_45.png	left	cw	45	NA	NA	NA	NA	0	151	151	157	820.6292728999397	NA	NA	NA	NA	821.1582884999225	821.1582884999225	right	0	2.2683798000216484	NA	NA	zaa	001	2026-02-10_12h47.51.343	MR	2023.1.0	60.04080373337148	NA
mr_images/12_a.png	mr_images/12_b_z_90.png	right	cw	90	NA	NA	NA	NA	0	152	152	52	823.4579349999549	NA	NA	NA	NA	823.9912740999134	823.9912740999134	left	0	3.5820494000799954	NA	NA	zaa	001	2026-02-10_12h47.51.343	MR	2023.1.0	60.04080373337148	NA
mr_images/3_a.png	mr_images/3_a_z_135.png	left	cw	135	NA	NA	NA	NA	0	153	153	81	827.5908346999204	NA	NA	NA	NA	828.1239601999987	828.1239601999987	right	0	3.0975250001065433	NA	NA	zaa	001	2026-02-10_12h47.51.343	MR	2023.1.0	60.04080373337148	NA
mr_images/7_a.png	mr_images/7_a_z_315.png	left	ccw	45	NA	NA	NA	NA	0	154	154	171	831.2401514999801	NA	NA	NA	NA	831.7735208999366	831.7735208999366	right	0	2.0831900000339374	NA	NA	zaa	001	2026-02-10_12h47.51.343	MR	2023.1.0	60.04080373337148	NA
mr_images/9_a.png	mr_images/9_b_z_45.png	right	cw	45	NA	NA	NA	NA	0	155	155	192	833.8731593999546	NA	NA	NA	NA	834.4065240999917	834.4065240999917	left	0	2.6193453999003395	NA	NA	zaa	001	2026-02-10_12h47.51.343	MR	2023.1.0	60.04080373337148	NA
mr_images/12_a.png	mr_images/12_b_z_270.png	right	ccw	90	NA	NA	NA	NA	0	156	156	54	837.0560577999568	NA	NA	NA	NA	837.5892480999464	837.5892480999464	left	0	1.7793285000370815	NA	NA	zaa	001	2026-02-10_12h47.51.343	MR	2023.1.0	60.04080373337148	NA
mr_images/5_a.png	mr_images/5_a_z_135.png	left	cw	135	NA	NA	NA	NA	0	157	157	129	839.3890654999996	NA	NA	NA	NA	839.9223908999702	839.9223908999702	right	0	3.9353734999895096	NA	NA	zaa	001	2026-02-10_12h47.51.343	MR	2023.1.0	60.04080373337148	NA
mr_images/9_a.png	mr_images/9_a_z_135.png	left	cw	135	NA	NA	NA	NA	0	158	158	201	843.8883936000057	NA	NA	NA	NA	844.4431824999629	844.4431824999629	right	0	3.4985986000392586	NA	NA	zaa	001	2026-02-10_12h47.51.343	MR	2023.1.0	60.04080373337148	NA
mr_images/1_b.png	mr_images/1_b_z_135.png	left	cw	135	NA	NA	NA	NA	0	159	159	21	847.9588460999075	NA	NA	NA	NA	848.48756769998	848.48756769998	left	1	3.702098399982788	NA	NA	zaa	001	2026-02-10_12h47.51.343	MR	2023.1.0	60.04080373337148	NA
mr_images/5_a.png	mr_images/5_a_z_90.png	left	cw	90	NA	NA	NA	NA	0	160	160	125	852.220674799988	NA	NA	NA	NA	852.7408944999333	852.7408944999333	left	1	3.708164099953138	NA	NA	zaa	001	2026-02-10_12h47.51.343	MR	2023.1.0	60.04080373337148	NA
mr_images/9_b.png	mr_images/9_a_z_90.png	right	cw	90	NA	NA	NA	NA	0	161	161	208	856.474313099985	NA	NA	NA	NA	NA	857.0403016000055	left	0	2.547324800048955	NA	NA	zaa	001	2026-02-10_12h47.51.343	MR	2023.1.0	60.04080373337148	NA
mr_images/7_a.png	mr_images/7_b_z_135.png	right	cw	135	NA	NA	NA	NA	0	162	162	176	859.6196846999228	NA	NA	NA	NA	860.1861570999026	860.1861570999026	left	0	1.5267210999736562	NA	NA	zaa	001	2026-02-10_12h47.51.343	MR	2023.1.0	60.04080373337148	NA
mr_images/11_b.png	mr_images/11_b_z_225.png	left	ccw	135	NA	NA	NA	NA	0	163	163	47	861.7358845999697	NA	NA	NA	NA	862.2692044998985	862.2692044998985	right	0	2.274361200048588	NA	NA	zaa	001	2026-02-10_12h47.51.343	MR	2023.1.0	60.04080373337148	NA
mr_images/1_a.png	mr_images/1_a_z_135.png	left	cw	135	NA	NA	NA	NA	0	164	164	9	864.5689133999404	NA	NA	NA	NA	865.1021359999431	865.1021359999431	right	0	3.871579600032419	NA	NA	zaa	001	2026-02-10_12h47.51.343	MR	2023.1.0	60.04080373337148	NA
mr_images/11_b.png	mr_images/11_a_z_135.png	right	cw	135	NA	NA	NA	NA	0	165	165	44	869.0013712999644	NA	NA	NA	NA	869.5347753999522	869.5347753999522	left	0	2.845136799965985	NA	NA	zaa	001	2026-02-10_12h47.51.343	MR	2023.1.0	60.04080373337148	NA
mr_images/6_b.png	mr_images/6_b_z_225.png	left	ccw	135	NA	NA	NA	NA	0	166	166	167	872.4010779999662	NA	NA	NA	NA	872.9554360999027	872.9554360999027	right	0	3.517033400014043	NA	NA	zaa	001	2026-02-10_12h47.51.343	MR	2023.1.0	60.04080373337148	NA
mr_images/7_a.png	mr_images/7_a_z_270.png	left	ccw	90	NA	NA	NA	NA	0	167	167	175	876.4881917999592	NA	NA	NA	NA	877.0171195999719	877.0171195999719	right	0	3.2815662999637425	NA	NA	zaa	001	2026-02-10_12h47.51.343	MR	2023.1.0	60.04080373337148	NA
mr_images/1_b.png	mr_images/1_a_z_270.png	right	ccw	90	NA	NA	NA	NA	0	168	168	18	880.316722999909	NA	NA	NA	NA	880.8499820999568	880.8499820999568	left	0	2.123910399968736	NA	NA	zaa	001	2026-02-10_12h47.51.343	MR	2023.1.0	60.04080373337148	NA
mr_images/6_a.png	mr_images/6_b_z_225.png	right	ccw	135	NA	NA	NA	NA	0	169	169	154	882.9996158999857	NA	NA	NA	NA	883.5329055999173	883.5329055999173	left	0	2.3577424000250176	NA	NA	zaa	001	2026-02-10_12h47.51.343	MR	2023.1.0	60.04080373337148	NA
mr_images/6_a.png	mr_images/6_b_z_315.png	right	ccw	45	NA	NA	NA	NA	0	170	170	146	885.916003899998	NA	NA	NA	NA	886.4491474999813	886.4491474999813	left	0	1.3416586999082938	NA	NA	zaa	001	2026-02-10_12h47.51.343	MR	2023.1.0	60.04080373337148	NA
mr_images/7_a.png	mr_images/7_a_z_225.png	left	ccw	135	NA	NA	NA	NA	0	171	171	179	887.8156974999001	NA	NA	NA	NA	888.3544162999606	888.3544162999606	right	0	2.882500599953346	NA	NA	zaa	001	2026-02-10_12h47.51.343	MR	2023.1.0	60.04080373337148	NA
mr_images/7_b.png	mr_images/7_b_z_135.png	left	cw	135	NA	NA	NA	NA	0	172	172	189	891.2528753000079	NA	NA	NA	NA	891.781783399987	891.781783399987	right	0	3.249147899914533	NA	NA	zaa	001	2026-02-10_12h47.51.343	MR	2023.1.0	60.04080373337148	NA
mr_images/3_b.png	mr_images/3_b_z_225.png	left	ccw	135	NA	NA	NA	NA	0	173	173	95	895.0479807999218	NA	NA	NA	NA	895.5812411999796	895.5812411999796	right	0	2.3203206999460235	NA	NA	zaa	001	2026-02-10_12h47.51.343	MR	2023.1.0	60.04080373337148	NA
mr_images/4_b.png	mr_images/4_b_z_315.png	left	ccw	45	NA	NA	NA	NA	0	174	174	111	897.930937099969	NA	NA	NA	NA	898.4520093000028	898.4520093000028	right	0	1.560541499988176	NA	NA	zaa	001	2026-02-10_12h47.51.343	MR	2023.1.0	60.04080373337148	NA
mr_images/3_a.png	mr_images/3_b_z_135.png	right	cw	135	NA	NA	NA	NA	0	175	175	80	900.0348930999171	NA	NA	NA	NA	900.5638738999842	900.5638738999842	left	0	2.54816609993577	NA	NA	zaa	001	2026-02-10_12h47.51.343	MR	2023.1.0	60.04080373337148	NA
mr_images/11_a.png	mr_images/11_a_z_270.png	left	ccw	90	NA	NA	NA	NA	0	176	176	31	903.1302285999992	NA	NA	NA	NA	903.6636318999808	903.6636318999808	right	0	3.3215441000647843	NA	NA	zaa	001	2026-02-10_12h47.51.343	MR	2023.1.0	60.04080373337148	NA
mr_images/7_b.png	mr_images/7_a_z_90.png	right	cw	90	NA	NA	NA	NA	0	177	177	184	907.0129814000102	NA	NA	NA	NA	907.5795513999184	907.5795513999184	left	0	2.353323500021361	NA	NA	zaa	001	2026-02-10_12h47.51.343	MR	2023.1.0	60.04080373337148	NA
mr_images/5_a.png	mr_images/5_b_z_315.png	right	ccw	45	NA	NA	NA	NA	0	178	178	122	909.9627060999628	NA	NA	NA	NA	910.4959464999848	910.4959464999848	left	0	1.1350633000256494	NA	NA	zaa	001	2026-02-10_12h47.51.343	MR	2023.1.0	60.04080373337148	NA
mr_images/5_b.png	mr_images/5_a_z_45.png	right	cw	45	NA	NA	NA	NA	0	179	179	132	911.662313799956	NA	NA	NA	NA	912.1955293999054	912.1955293999054	right	1	4.346843699924648	NA	NA	zaa	001	2026-02-10_12h47.51.343	MR	2023.1.0	60.04080373337148	NA
mr_images/9_b.png	mr_images/9_a_z_315.png	right	ccw	45	NA	NA	NA	NA	0	180	180	206	916.5616525999504	NA	NA	NA	NA	917.0949788999278	917.0949788999278	left	0	2.660678399959579	NA	NA	zaa	001	2026-02-10_12h47.51.343	MR	2023.1.0	60.04080373337148	NA
mr_images/6_b.png	mr_images/6_b_z_90.png	left	cw	90	NA	NA	NA	NA	0	181	181	161	919.777839599992	NA	NA	NA	NA	920.3112588999792	920.3112588999792	left	1	1.6685633999295533	NA	NA	zaa	001	2026-02-10_12h47.51.343	MR	2023.1.0	60.04080373337148	NA
mr_images/4_b.png	mr_images/4_b_z_270.png	left	ccw	90	NA	NA	NA	NA	0	182	182	115	922.010910299956	NA	NA	NA	NA	922.5442328999052	922.5442328999052	right	0	1.617879599914886	NA	NA	zaa	001	2026-02-10_12h47.51.343	MR	2023.1.0	60.04080373337148	NA
mr_images/6_a.png	mr_images/6_a_z_270.png	left	ccw	90	NA	NA	NA	NA	0	183	183	151	924.194108299911	NA	NA	NA	NA	924.7272319999756	924.7272319999756	left	1	3.0822310999501497	NA	NA	zaa	001	2026-02-10_12h47.51.343	MR	2023.1.0	60.04080373337148	NA
mr_images/11_a.png	mr_images/11_b_z_45.png	right	cw	45	NA	NA	NA	NA	0	184	184	24	927.8268117000116	NA	NA	NA	NA	928.360030699987	928.360030699987	right	1	3.8739328999072313	NA	NA	zaa	001	2026-02-10_12h47.51.343	MR	2023.1.0	60.04080373337148	NA
mr_images/3_b.png	mr_images/3_b_z_45.png	left	cw	45	NA	NA	NA	NA	0	185	185	85	932.2594815999036	NA	NA	NA	NA	932.792762600002	932.792762600002	right	0	2.1352492000442	NA	NA	zaa	001	2026-02-10_12h47.51.343	MR	2023.1.0	60.04080373337148	NA
mr_images/4_a.png	mr_images/4_a_z_270.png	left	ccw	90	NA	NA	NA	NA	0	186	186	103	934.9591860999352	NA	NA	NA	NA	935.4925335999578	935.4925335999578	right	0	1.950872699962929	NA	NA	zaa	001	2026-02-10_12h47.51.343	MR	2023.1.0	60.04080373337148	NA
mr_images/3_b.png	mr_images/3_b_z_315.png	left	ccw	45	NA	NA	NA	NA	0	187	187	87	937.4754056999228	NA	NA	NA	NA	938.008698199992	938.008698199992	right	0	1.1818204000592232	NA	NA	zaa	001	2026-02-10_12h47.51.343	MR	2023.1.0	60.04080373337148	NA
mr_images/9_a.png	mr_images/9_a_z_90.png	left	cw	90	NA	NA	NA	NA	0	188	188	197	939.2085345999805	NA	NA	NA	NA	939.7417753000044	939.7417753000044	right	0	2.7070399000076577	NA	NA	zaa	001	2026-02-10_12h47.51.343	MR	2023.1.0	60.04080373337148	NA
mr_images/9_b.png	mr_images/9_a_z_270.png	right	ccw	90	NA	NA	NA	NA	0	189	189	210	942.4747997999656	NA	NA	NA	NA	943.0080190999432	943.0080190999432	left	0	1.7119893999770284	NA	NA	zaa	001	2026-02-10_12h47.51.343	MR	2023.1.0	60.04080373337148	NA
mr_images/7_a.png	mr_images/7_a_z_90.png	left	cw	90	NA	NA	NA	NA	0	190	190	173	944.741254499997	NA	NA	NA	NA	945.2609464999988	945.2609464999988	right	0	3.306658699992113	NA	NA	zaa	001	2026-02-10_12h47.51.343	MR	2023.1.0	60.04080373337148	NA
mr_images/4_a.png	mr_images/4_b_z_90.png	right	cw	90	NA	NA	NA	NA	0	191	191	100	948.5948063000104	NA	NA	NA	NA	949.1237857999512	949.1237857999512	left	0	2.084304300020449	NA	NA	zaa	001	2026-02-10_12h47.51.343	MR	2023.1.0	60.04080373337148	NA
mr_images/3_a.png	mr_images/3_b_z_315.png	right	ccw	45	NA	NA	NA	NA	0	192	192	74	951.2401395000052	NA	NA	NA	NA	951.7735287999968	951.7735287999968	left	0	0.8646579999476671	NA	NA	zaa	001	2026-02-10_12h47.51.343	MR	2023.1.0	60.04080373337148	NA
mr_images/7_b.png	mr_images/7_b_z_90.png	left	cw	90	NA	NA	NA	NA	0	193	193	185	952.6568639999024	NA	NA	NA	NA	953.1899534999392	953.1899534999392	right	0	4.280818899977021	NA	NA	zaa	001	2026-02-10_12h47.51.343	MR	2023.1.0	60.04080373337148	NA
mr_images/6_a.png	mr_images/6_b_z_135.png	right	cw	135	NA	NA	NA	NA	0	194	194	152	957.4894212000072	NA	NA	NA	NA	958.0225841999054	958.0225841999054	left	0	4.124248899985105	NA	NA	zaa	001	2026-02-10_12h47.51.343	MR	2023.1.0	60.04080373337148	NA
mr_images/7_b.png	mr_images/7_a_z_225.png	right	ccw	135	NA	NA	NA	NA	0	195	195	190	962.171993899974	NA	NA	NA	NA	962.688290799968	962.688290799968	left	0	4.461791299981996	NA	NA	zaa	001	2026-02-10_12h47.51.343	MR	2023.1.0	60.04080373337148	NA
mr_images/7_a.png	mr_images/7_b_z_270.png	right	ccw	90	NA	NA	NA	NA	0	196	196	174	967.17123420001	NA	NA	NA	NA	967.7045520999236	967.7045520999236	left	0	2.6248027000110596	NA	NA	zaa	001	2026-02-10_12h47.51.343	MR	2023.1.0	60.04080373337148	NA
mr_images/9_b.png	mr_images/9_a_z_135.png	right	cw	135	NA	NA	NA	NA	0	197	197	212	970.3541491999058	NA	NA	NA	NA	970.8875708999112	970.8875708999112	left	0	2.164239300065674	NA	NA	zaa	001	2026-02-10_12h47.51.343	MR	2023.1.0	60.04080373337148	NA
mr_images/9_b.png	mr_images/9_b_z_315.png	left	ccw	45	NA	NA	NA	NA	0	198	198	207	973.070494399988	NA	NA	NA	NA	973.6037500000092	973.6037500000092	right	0	3.7504339000443	NA	NA	zaa	001	2026-02-10_12h47.51.343	MR	2023.1.0	60.04080373337148	NA
mr_images/11_b.png	mr_images/11_a_z_45.png	right	cw	45	NA	NA	NA	NA	0	199	199	36	977.3865709999808	NA	NA	NA	NA	977.9200728998984	977.9200728998984	left	0	2.3334751999937	NA	NA	zaa	001	2026-02-10_12h47.51.343	MR	2023.1.0	60.04080373337148	NA
mr_images/6_b.png	mr_images/6_a_z_225.png	right	ccw	135	NA	NA	NA	NA	0	200	200	166	980.28612840001006	NA	NA	NA	NA	980.8214457998984	980.8214457998984	right	1	4.533514500013553	NA	NA	zaa	001	2026-02-10_12h47.51.343	MR	2023.1.0	60.04080373337148	NA
mr_images/1_a.png	mr_images/1_b_z_45.png	right	cw	45	NA	NA	NA	NA	0	201	201	0	985.3730589000044	NA	NA	NA	NA	985.9020336999092	985.9020336999092	left	0	2.968724000034854	NA	NA	zaa	001	2026-02-10_12h47.51.343	MR	2023.1.0	60.04080373337148	NA
mr_images/12_b.png	mr_images/12_b_z_225.png	left	ccw	135	NA	NA	NA	NA	0	202	202	71	988.9016200999032	NA	NA	NA	NA	989.4349614999956	989.4349614999956	right	0	4.293537000077777	NA	NA	zaa	001	2026-02-10_12h47.51.343	MR	2023.1.0	60.04080373337148	NA
mr_images/3_a.png	mr_images/3_a_z_90.png	left	cw	90	NA	NA	NA	NA	0	203	203	77	993.7510479999472	NA	NA	NA	NA	994.284285099944	994.284285099944	right	0	2.69782869995106	NA	NA	zaa	001	2026-02-10_12h47.51.343	MR	2023.1.0	60.04080373337148	NA
mr_images/5_b.png	mr_images/5_a_z_270.png	right	ccw	90	NA	NA	NA	NA	0	204	204	138	997.00046399992425	NA	NA	NA	NA	997.5338297999696	997.5338297999696	left	0	1.7353310000617057	NA	NA	zaa	001	2026-02-10_12h47.51.343	MR	2023.1.0	60.04080373337148	NA
mr_images/4_a.png	mr_images/4_b_z_225.png	right	ccw	135	NA	NA	NA	NA	0	205	205	106	999.300190399983	NA	NA	NA	NA	999.8334444999928	999.8334444999928	left	0	2.7322896999539807	NA	NA	zaa	001	2026-02-10_12h47.51.343	MR	2023.1.0	60.04080373337148	NA
mr_images/4_b.png	mr_images/4_a_z_45.png	right	cw	45	NA	NA	NA	NA	0	206	206	108	1002.5831145999256	NA	NA	NA	NA	1003.11634269997	1003.11634269997	left	0	1.9535891000414267	NA	NA	zaa	001	2026-02-10_12h47.51.343	MR	2023.1.0	60.04080373337148	NA
mr_images/3_b.png	mr_images/3_a_z_270.png	right	ccw	90	NA	NA	NA	NA	0	207	207	90	1005.0995627999072	NA	NA	NA	NA	1005.632593999966	1005.632593999966	left	0	2.7218609999399632	NA	NA	zaa	001	2026-02-10_12h47.51.343	MR	2023.1.0	60.04080373337148	NA
mr_images/4_b.png	mr_images/4_b_z_45.png	left	cw	45	NA	NA	NA	NA	0	208	208	109	1008.3821983999806	NA	NA	NA	NA	1008.9155266999732	1008.9155266999732	right	0	1.9225368000334129	NA	NA	zaa	001	2026-02-10_12h47.51.343	MR	2023.1.0	60.04080373337148	NA
mr_images/11_a.png	mr_images/11_a_z_135.png	left	cw	135	NA	NA	NA	NA	0	209	209	33	1010.8653319999576	NA	NA	NA	NA	1011.3985765000108	1011.3985765000108	right	0	3.491909900098108	NA	NA	zaa	001	2026-02-10_12h47.51.343	MR	2023.1.0	60.04080373337148	NA
mr_images/12_b.png	mr_images/12_b_z_315.png	left	ccw	45	NA	NA	NA	NA	0	210	210	63	1014.9146981999512	NA	NA	NA	NA	1015.4479075999698	1015.4479075999698	right	0	2.477942500030622	NA	NA	zaa	001	2026-02-10_12h47.51.343	MR	2023.1.0	60.04080373337148	NA
mr_images/6_a.png	mr_images/6_b_z_270.png	right	ccw	90	NA	NA	NA	NA	0	211	211	150	1017.9476979000028	NA	NA	NA	NA	1018.4808668999468	1018.4808668999468	left	0	3.1241696999641135	NA	NA	zaa	001	2026-02-10_12h47.51.343	MR	2023.1.0	60.04080373337148	NA
mr_images/5_a.png	mr_images/5_b_z_225.png	right	ccw	135	NA	NA	NA	NA	0	212	212	130	1021.6303658999968	NA	NA	NA	NA	1022.163753299974	1022.163753299974	left	0	3.417785699944943	NA	NA	zaa	001	2026-02-10_12h47.51.343	MR	2023.1.0	60.04080373337148	NA
mr_images/9_b.png	mr_images/9_b_z_135.png	left	cw	135	NA	NA	NA	NA	0	213	213	213	1025.6132335999282	NA	NA	NA	NA	1026.1466579999542	1026.1466579999542	right	0	3.0753077999688685	NA	NA	zaa	001	2026-02-10_12h47.51.343	MR	2023.1.0	60.04080373337148	NA
mr_images/12_a.png	mr_images/12_a_z_90.png	left	cw	90	NA	NA	NA	NA	0	214	214	53	1029.2460517999716	NA	NA	NA	NA	1029.7792969999136	1029.7792969999136	right	0	3.0793196000158787	NA	NA	zaa	001	2026-02-10_12h47.51.343	MR	2023.1.0	60.04080373337148	NA
mr_images/5_b.png	mr_images/5_b_z_270.png	left	ccw	90	NA	NA	NA	NA	0	215	215	139	1032.8788220999995	NA	NA	NA	NA	1033.4121763999574	1033.4121763999574	right	0	2.749379099928774	NA	NA	zaa	001	2026-02-10_12h47.51.343	MR	2023.1.0	60.04080373337148	NA
NA	NA	NA	NA	NA	NA	NA	NA	NA	NA	NA	NA	NA	NA	NA	NA	NA	NA	NA	NA	NA	NA	NA	1036.1783317999216	1038.1781875999875	NA	NA	NA	NA	NA	NA	NA
