sequence	training_session.thisRepN	training_session.thisTrialN	training_session.thisN	training_session.thisIndex	training_2n.thisRepN	training_2n.thisTrialN	training_2n.thisN	training_2n.thisIndex	training_3n.thisRepN	training_3n.thisTrialN	training_3n.thisN	training_3n.thisIndex	training_4n.thisRepN	training_4n.thisTrialN	training_4n.thisN	training_4n.thisIndex	allrep_2nback.thisRepN	allrep_2nback.thisTrialN	allrep_2nback.thisN	allrep_2nback.thisIndex	trials_2nback.thisRepN	trials_2nback.thisTrialN	trials_2nback.thisN	trials_2nback.thisIndex	allrep_3nback.thisRepN	allrep_3nback.thisTrialN	allrep_3nback.thisN	allrep_3nback.thisIndex	trials_3nback.thisRepN	trials_3nback.thisTrialN	trials_3nback.thisN	trials_3nback.thisIndex	allrep_4nback.thisRepN	allrep_4nback.thisTrialN	allrep_4nback.thisN	allrep_4nback.thisIndex	trials_4nback.thisRepN	trials_4nback.thisTrialN	trials_4nback.thisN	trials_4nback.thisIndex	buffer02_txt.started	test_griddot_resp2.started	test_griddot_resp2.keys	test_griddot_resp2.rt	buffer23_txt.started	test_griddot_resp3.started	test_griddot_resp3.keys	test_griddot_resp3.rt	buffer34_txt.started	test_griddot_resp4.started	test_griddot_resp4.keys	test_griddot_resp4.rt	confirm_resp.started	confirm_resp.keys	confirm_resp.rt	instr_text_2.started	buffer02_txt.stopped	griddot_resp2.started	griddot_resp2.keys	griddot_resp2.rt	buffer23_txt.stopped	griddot_resp3.started	griddot_resp3.keys	griddot_resp3.rt	buffer34_txt.stopped	griddot_resp4.started	griddot_resp4.keys	griddot_resp4.rt	participant	session	date	expName	psychopyVersion	frameRate	...76
[(1, 0), (0, 0), (0, 0), (2, 0), (1, 1), (2, 0), (1, 1), (2, 0)]	0	0	0	0	0	0	0	6	NA	NA	NA	NA	NA	NA	NA	NA	NA	NA	NA	NA	NA	NA	NA	NA	NA	NA	NA	NA	NA	NA	NA	NA	NA	NA	NA	NA	NA	NA	NA	NA	170.63886640011333	174.71702390001155	['left', 'left', 'left', 'right', 'right', 'right']	[5.18412599992007, 7.752157899783924, 9.054235199699178, 10.857817499898374, 13.244930099695921, 14.99927799985744]	NA	NA	NA	NA	NA	NA	NA	NA	NA	NA	NA	NA	NA	NA	NA	NA	NA	NA	NA	NA	NA	NA	NA	NA	pme	001	2026-02-17_14h16.37.585	SS	2023.1.0	60.01694877565282	NA
[(2, 0), (1, 2), (2, 0), (1, 1), (2, 0), (2, 2), (0, 1), (1, 2)]	0	0	0	0	0	1	1	525	NA	NA	NA	NA	NA	NA	NA	NA	NA	NA	NA	NA	NA	NA	NA	NA	NA	NA	NA	NA	NA	NA	NA	NA	NA	NA	NA	NA	NA	NA	NA	NA	NA	191.71477670012973	['right', 'left', 'right', 'left', 'left', 'left']	[5.280280199833214, 6.902467199834064, 9.074676499702036, 10.721803299849853, 12.889135899720713, 15.221715199761093]	NA	NA	NA	NA	NA	NA	NA	NA	NA	NA	NA	NA	NA	NA	NA	NA	NA	NA	NA	NA	NA	NA	NA	NA	pme	001	2026-02-17_14h16.37.585	SS	2023.1.0	60.01694877565282	NA
[(1, 2), (2, 0), (2, 0), (2, 0), (0, 0), (2, 0), (2, 1), (0, 0)]	0	0	0	0	0	2	2	465	NA	NA	NA	NA	NA	NA	NA	NA	NA	NA	NA	NA	NA	NA	NA	NA	NA	NA	NA	NA	NA	NA	NA	NA	NA	NA	NA	NA	NA	NA	NA	NA	NA	208.7006097000558	['right', 'left', 'left', 'right', 'left', 'right']	[4.842770699877292, 7.166967199882492, 9.064482599962503, 11.026884499937296, 12.894437999930233, 14.903522299835458]	NA	NA	NA	NA	NA	NA	NA	NA	NA	NA	NA	NA	NA	NA	NA	NA	NA	NA	NA	NA	NA	NA	NA	NA	pme	001	2026-02-17_14h16.37.585	SS	2023.1.0	60.01694877565282	NA
[(2, 1), (2, 1), (0, 0), (2, 2), (1, 2), (0, 0), (0, 1), (1, 2), (2, 2)]	0	0	0	0	NA	NA	NA	NA	0	0	0	17	NA	NA	NA	NA	NA	NA	NA	NA	NA	NA	NA	NA	NA	NA	NA	NA	NA	NA	NA	NA	NA	NA	NA	NA	NA	NA	NA	NA	NA	NA	NA	NA	225.6477628001012	229.69639850012027	['left', 'left', 'left', 'right', 'left', 'right', 'left']	[3.278773699887097, 7.367420099908486, 8.674454999854788, 11.083686999743804, 13.055496799759567, 14.94286029972136, 17.205697199795395]	NA	NA	NA	NA	NA	NA	NA	NA	NA	NA	NA	NA	NA	NA	NA	NA	NA	NA	NA	NA	pme	001	2026-02-17_14h16.37.585	SS	2023.1.0	60.01694877565282	NA
[(2, 0), (2, 1), (2, 1), (0, 2), (1, 2), (2, 1), (2, 2), (2, 1), (2, 1)]	0	0	0	0	NA	NA	NA	NA	0	1	1	71	NA	NA	NA	NA	NA	NA	NA	NA	NA	NA	NA	NA	NA	NA	NA	NA	NA	NA	NA	NA	NA	NA	NA	NA	NA	NA	NA	NA	NA	NA	NA	NA	NA	248.67813710006885	['left', 'left', 'right', 'left', 'right']	[6.766327099874616, 8.720552199753001, 11.568779499735683, 13.659198199864477, 17.4355679997243]	NA	NA	NA	NA	NA	NA	NA	NA	NA	NA	NA	NA	NA	NA	NA	NA	NA	NA	NA	NA	pme	001	2026-02-17_14h16.37.585	SS	2023.1.0	60.01694877565282	NA
[(1, 0), (2, 1), (0, 1), (1, 1), (2, 1), (2, 1), (2, 2), (2, 1), (1, 2)]	0	0	0	0	NA	NA	NA	NA	0	2	2	184	NA	NA	NA	NA	NA	NA	NA	NA	NA	NA	NA	NA	NA	NA	NA	NA	NA	NA	NA	NA	NA	NA	NA	NA	NA	NA	NA	NA	NA	NA	NA	NA	NA	267.6908162001055	['left', 'right', 'left', 'left', 'right', 'left']	[6.6903481998015195, 8.703303599962965, 10.723460999783128, 12.827066799858585, 14.667547899764031, 17.15310339978896]	NA	NA	NA	NA	NA	NA	NA	NA	NA	NA	NA	NA	NA	NA	NA	NA	NA	NA	NA	NA	pme	001	2026-02-17_14h16.37.585	SS	2023.1.0	60.01694877565282	NA
[(0, 1), (0, 1), (1, 2), (0, 2), (1, 0), (0, 0), (1, 2), (1, 2), (1, 0), (0, 2)]	0	0	0	0	NA	NA	NA	NA	NA	NA	NA	NA	0	0	0	105	NA	NA	NA	NA	NA	NA	NA	NA	NA	NA	NA	NA	NA	NA	NA	NA	NA	NA	NA	NA	NA	NA	NA	NA	NA	NA	NA	NA	NA	NA	NA	NA	286.651726400014	290.70095730014145	['left', 'left', 'right', 'left', 'left', 'right']	[8.65448040002957, 10.671232299879193, 12.826651999959722, 15.011793199926615, 17.3379994998686, 18.843524700030684]	NA	NA	NA	NA	NA	NA	NA	NA	NA	NA	NA	NA	NA	NA	NA	NA	pme	001	2026-02-17_14h16.37.585	SS	2023.1.0	60.01694877565282	NA
[(2, 1), (0, 0), (1, 2), (1, 1), (2, 1), (1, 2), (1, 2), (2, 1), (1, 0), (2, 2)]	0	0	0	0	NA	NA	NA	NA	NA	NA	NA	NA	0	1	1	77	NA	NA	NA	NA	NA	NA	NA	NA	NA	NA	NA	NA	NA	NA	NA	NA	NA	NA	NA	NA	NA	NA	NA	NA	NA	NA	NA	NA	NA	NA	NA	NA	NA	311.7184360001702	['right', 'left', 'right', 'left', 'left', 'left']	[8.760348999872804, 11.112696199910715, 12.838036299915984, 15.033129499992356, 17.043395299930125, 18.847806899808347]	NA	NA	NA	NA	NA	NA	NA	NA	NA	NA	NA	NA	NA	NA	NA	NA	pme	001	2026-02-17_14h16.37.585	SS	2023.1.0	60.01694877565282	NA
[(0, 2), (0, 0), (0, 0), (2, 0), (0, 2), (1, 2), (2, 0), (0, 2), (0, 1), (1, 2)]	0	0	0	0	NA	NA	NA	NA	NA	NA	NA	NA	0	2	2	664	NA	NA	NA	NA	NA	NA	NA	NA	NA	NA	NA	NA	NA	NA	NA	NA	NA	NA	NA	NA	NA	NA	NA	NA	NA	NA	NA	NA	NA	NA	NA	NA	NA	332.7118672002107	['right', 'left', 'left', 'left', 'left', 'right']	[8.915135300019756, 10.662624099990353, 13.033817499876022, 14.762182199861854, 17.009386099874973, 19.008879999862984]	NA	NA	NA	NA	NA	NA	NA	NA	NA	NA	NA	NA	NA	NA	NA	NA	pme	001	2026-02-17_14h16.37.585	SS	2023.1.0	60.01694877565282	NA
NA	0	0	0	0	NA	NA	NA	NA	NA	NA	NA	NA	NA	NA	NA	NA	NA	NA	NA	NA	NA	NA	NA	NA	NA	NA	NA	NA	NA	NA	NA	NA	NA	NA	NA	NA	NA	NA	NA	NA	NA	NA	NA	NA	NA	NA	NA	NA	NA	NA	NA	NA	352.6423345000949	y	46.42047320003621	NA	NA	NA	NA	NA	NA	NA	NA	NA	NA	NA	NA	NA	pme	001	2026-02-17_14h16.37.585	SS	2023.1.0	60.01694877565282	NA
[(0, 0), (0, 0), (0, 0), (0, 2), (0, 2), (0, 1), (1, 2), (0, 1)]	NA	NA	NA	NA	NA	NA	NA	NA	NA	NA	NA	NA	NA	NA	NA	NA	0	0	0	0	0	0	0	126	NA	NA	NA	NA	NA	NA	NA	NA	NA	NA	NA	NA	NA	NA	NA	NA	425.48223030008376	NA	NA	NA	NA	NA	NA	NA	NA	NA	NA	NA	NA	NA	NA	399.0859668001067	428.54979100008495	429.55294429999776	['right', 'left', 'left', 'left', 'left', 'right']	[5.05450789979659, 6.776601699879393, 9.370094699785113, 10.932230399921536, 12.714359399862587, 14.828538699774072]	NA	NA	NA	NA	NA	NA	NA	NA	pme	001	2026-02-17_14h16.37.585	SS	2023.1.0	60.01694877565282	NA
[(1, 0), (0, 1), (2, 0), (0, 1), (2, 1), (0, 1), (2, 1), (0, 0)]	NA	NA	NA	NA	NA	NA	NA	NA	NA	NA	NA	NA	NA	NA	NA	NA	0	0	0	0	0	1	1	617	NA	NA	NA	NA	NA	NA	NA	NA	NA	NA	NA	NA	NA	NA	NA	NA	NA	NA	NA	NA	NA	NA	NA	NA	NA	NA	NA	NA	NA	NA	NA	NA	NA	446.5626519999933	['left', 'right', 'left', 'right', 'right', 'left']	[4.974735899828374, 6.940007299883291, 8.862071099923924, 10.913708599749953, 13.048711799783632, 14.725969099905342]	NA	NA	NA	NA	NA	NA	NA	NA	pme	001	2026-02-17_14h16.37.585	SS	2023.1.0	60.01694877565282	NA
[(2, 0), (2, 0), (2, 1), (2, 0), (2, 1), (1, 2), (0, 2), (1, 2)]	NA	NA	NA	NA	NA	NA	NA	NA	NA	NA	NA	NA	NA	NA	NA	NA	0	0	0	0	0	2	2	468	NA	NA	NA	NA	NA	NA	NA	NA	NA	NA	NA	NA	NA	NA	NA	NA	NA	NA	NA	NA	NA	NA	NA	NA	NA	NA	NA	NA	NA	NA	NA	NA	NA	463.5470430999994	['left', 'right', 'right', 'left', 'left', 'right']	[4.839991099899635, 6.744191099889576, 8.677918300032616, 10.65211179992184, 12.923361399909481, 14.577857099939138]	NA	NA	NA	NA	NA	NA	NA	NA	pme	001	2026-02-17_14h16.37.585	SS	2023.1.0	60.01694877565282	NA
[(1, 0), (0, 0), (1, 0), (0, 1), (2, 2), (1, 1), (2, 2), (2, 2)]	NA	NA	NA	NA	NA	NA	NA	NA	NA	NA	NA	NA	NA	NA	NA	NA	0	0	0	0	0	3	3	242	NA	NA	NA	NA	NA	NA	NA	NA	NA	NA	NA	NA	NA	NA	NA	NA	NA	NA	NA	NA	NA	NA	NA	NA	NA	NA	NA	NA	NA	NA	NA	NA	NA	480.5453590000979	['right', 'left', 'left', 'left', 'right', 'left']	[4.6521014999598265, 6.711357399821281, 8.681479199789464, 10.695637099910527, 12.483785099815577, 14.964013599790633]	NA	NA	NA	NA	NA	NA	NA	NA	pme	001	2026-02-17_14h16.37.585	SS	2023.1.0	60.01694877565282	NA
[(1, 2), (2, 0), (1, 2), (1, 2), (1, 1), (1, 2), (0, 2), (2, 1)]	NA	NA	NA	NA	NA	NA	NA	NA	NA	NA	NA	NA	NA	NA	NA	NA	0	0	0	0	0	4	4	469	NA	NA	NA	NA	NA	NA	NA	NA	NA	NA	NA	NA	NA	NA	NA	NA	NA	NA	NA	NA	NA	NA	NA	NA	NA	NA	NA	NA	NA	NA	NA	NA	NA	497.5427486000117	['right', 'left', 'left', 'right', 'left', 'left']	[4.683364499825984, 6.936602599918842, 8.779700899729505, 10.598746199859306, 12.761116699781269, 14.804262699792162]	NA	NA	NA	NA	NA	NA	NA	NA	pme	001	2026-02-17_14h16.37.585	SS	2023.1.0	60.01694877565282	NA
[(2, 1), (0, 1), (2, 1), (1, 2), (0, 0), (1, 2), (0, 1), (1, 2)]	NA	NA	NA	NA	NA	NA	NA	NA	NA	NA	NA	NA	NA	NA	NA	NA	0	0	0	0	0	5	5	70	NA	NA	NA	NA	NA	NA	NA	NA	NA	NA	NA	NA	NA	NA	NA	NA	NA	NA	NA	NA	NA	NA	NA	NA	NA	NA	NA	NA	NA	NA	NA	NA	NA	514.5391699001193	['right', 'left', 'left', 'right', 'left', 'right']	[4.535771299852058, 6.603932299884036, 8.612191799795255, 10.71833649976179, 12.962006299756467, 14.672105299774557]	NA	NA	NA	NA	NA	NA	NA	NA	pme	001	2026-02-17_14h16.37.585	SS	2023.1.0	60.01694877565282	NA
NA	NA	NA	NA	NA	NA	NA	NA	NA	NA	NA	NA	NA	NA	NA	NA	NA	0	0	0	0	NA	NA	NA	NA	NA	NA	NA	NA	NA	NA	NA	NA	NA	NA	NA	NA	NA	NA	NA	NA	NA	NA	NA	NA	NA	NA	NA	NA	NA	NA	NA	NA	NA	NA	NA	NA	NA	NA	NA	NA	NA	NA	NA	NA	NA	NA	NA	NA	pme	001	2026-02-17_14h16.37.585	SS	2023.1.0	60.01694877565282	NA
[(2, 0), (2, 0), (0, 2), (1, 0), (0, 1), (2, 1), (0, 1), (2, 1)]	NA	NA	NA	NA	NA	NA	NA	NA	NA	NA	NA	NA	NA	NA	NA	NA	1	0	1	0	0	0	0	180	NA	NA	NA	NA	NA	NA	NA	NA	NA	NA	NA	NA	NA	NA	NA	NA	NA	NA	NA	NA	NA	NA	NA	NA	NA	NA	NA	NA	NA	NA	NA	NA	NA	533.5340828001499	['left', 'left', 'left', 'left', 'right', 'right']	[5.0261901000048965, 6.788766499841586, 8.607024499913678, 10.7991990998853, 12.645306299906224, 14.673723499989137]	NA	NA	NA	NA	NA	NA	NA	NA	pme	001	2026-02-17_14h16.37.585	SS	2023.1.0	60.01694877565282	NA
[(0, 1), (2, 1), (0, 1), (0, 1), (2, 0), (0, 1), (0, 1), (0, 0)]	NA	NA	NA	NA	NA	NA	NA	NA	NA	NA	NA	NA	NA	NA	NA	NA	1	0	1	0	0	1	1	177	NA	NA	NA	NA	NA	NA	NA	NA	NA	NA	NA	NA	NA	NA	NA	NA	NA	NA	NA	NA	NA	NA	NA	NA	NA	NA	NA	NA	NA	NA	NA	NA	NA	550.4979880000465	['right', 'left', 'left', 'right', 'left', 'left']	[4.543182999826968, 6.755342399701476, 9.285575599875301, 10.790747699793428, 12.83285199990496, 15.175273299915716]	NA	NA	NA	NA	NA	NA	NA	NA	pme	001	2026-02-17_14h16.37.585	SS	2023.1.0	60.01694877565282	NA
[(1, 2), (0, 1), (0, 0), (0, 1), (2, 0), (1, 2), (1, 1), (1, 2)]	NA	NA	NA	NA	NA	NA	NA	NA	NA	NA	NA	NA	NA	NA	NA	NA	1	0	1	0	0	2	2	584	NA	NA	NA	NA	NA	NA	NA	NA	NA	NA	NA	NA	NA	NA	NA	NA	NA	NA	NA	NA	NA	NA	NA	NA	NA	NA	NA	NA	NA	NA	NA	NA	NA	567.5324609000236	['left', 'right', 'left', 'left', 'left', 'right']	[4.905156499706209, 6.87429969990626, 8.620562799740583, 11.39496749988757, 13.150096699828282, 14.75422599981539]	NA	NA	NA	NA	NA	NA	NA	NA	pme	001	2026-02-17_14h16.37.585	SS	2023.1.0	60.01694877565282	NA
[(2, 1), (2, 2), (2, 1), (2, 2), (2, 1), (1, 1), (1, 2), (2, 2)]	NA	NA	NA	NA	NA	NA	NA	NA	NA	NA	NA	NA	NA	NA	NA	NA	1	0	1	0	0	3	3	680	NA	NA	NA	NA	NA	NA	NA	NA	NA	NA	NA	NA	NA	NA	NA	NA	NA	NA	NA	NA	NA	NA	NA	NA	NA	NA	NA	NA	NA	NA	NA	NA	NA	584.5435900001321	['right', 'right', 'right', 'left', 'left', 'left']	[4.450746899703518, 6.415876699844375, 9.03718369989656, 10.601283199852332, 12.731633499730378, 14.799757599830627]	NA	NA	NA	NA	NA	NA	NA	NA	pme	001	2026-02-17_14h16.37.585	SS	2023.1.0	60.01694877565282	NA
[(0, 2), (2, 0), (0, 2), (2, 2), (0, 2), (2, 1), (1, 1), (1, 1)]	NA	NA	NA	NA	NA	NA	NA	NA	NA	NA	NA	NA	NA	NA	NA	NA	1	0	1	0	0	4	4	13	NA	NA	NA	NA	NA	NA	NA	NA	NA	NA	NA	NA	NA	NA	NA	NA	NA	NA	NA	NA	NA	NA	NA	NA	NA	NA	NA	NA	NA	NA	NA	NA	NA	601.5290689000394	['right', 'left', 'right', 'left', 'left', 'right']	[4.687104299897328, 6.54035979998298, 8.500564199872315, 10.58868039981462, 12.646068299887702, 14.726432199822739]	NA	NA	NA	NA	NA	NA	NA	NA	pme	001	2026-02-17_14h16.37.585	SS	2023.1.0	60.01694877565282	NA
[(2, 0), (2, 1), (2, 0), (2, 0), (2, 1), (2, 0), (0, 1), (2, 1)]	NA	NA	NA	NA	NA	NA	NA	NA	NA	NA	NA	NA	NA	NA	NA	NA	1	0	1	0	0	5	5	689	NA	NA	NA	NA	NA	NA	NA	NA	NA	NA	NA	NA	NA	NA	NA	NA	NA	NA	NA	NA	NA	NA	NA	NA	NA	NA	NA	NA	NA	NA	NA	NA	NA	618.5402920001652	['right', 'left', 'right', 'right', 'left', 'right']	[4.6790968999266624, 6.622885199962184, 9.17548089986667, 10.767751399893314, 12.74202899984084, 15.528164099901915]	NA	NA	NA	NA	NA	NA	NA	NA	pme	001	2026-02-17_14h16.37.585	SS	2023.1.0	60.01694877565282	NA
NA	NA	NA	NA	NA	NA	NA	NA	NA	NA	NA	NA	NA	NA	NA	NA	NA	1	0	1	0	NA	NA	NA	NA	NA	NA	NA	NA	NA	NA	NA	NA	NA	NA	NA	NA	NA	NA	NA	NA	NA	NA	NA	NA	NA	NA	NA	NA	NA	NA	NA	NA	NA	NA	NA	NA	NA	NA	NA	NA	NA	NA	NA	NA	NA	NA	NA	NA	pme	001	2026-02-17_14h16.37.585	SS	2023.1.0	60.01694877565282	NA
[(0, 1), (0, 1), (1, 2), (0, 2), (0, 2), (1, 2), (2, 1), (2, 1), (1, 2)]	NA	NA	NA	NA	NA	NA	NA	NA	NA	NA	NA	NA	NA	NA	NA	NA	NA	NA	NA	NA	NA	NA	NA	NA	0	0	0	0	0	0	0	481	NA	NA	NA	NA	NA	NA	NA	NA	NA	NA	NA	NA	636.3363683000207	NA	NA	NA	NA	NA	NA	NA	NA	NA	NA	NA	NA	NA	NA	NA	639.4525629000273	640.4190493000206	['left', 'left', 'right', 'left', 'left']	[6.765441899886355, 8.875512899830937, 10.69818349997513, 12.902469099964947, 15.159833499928936]	NA	NA	NA	NA	pme	001	2026-02-17_14h16.37.585	SS	2023.1.0	60.01694877565282	NA
[(1, 1), (0, 1), (2, 1), (1, 2), (2, 1), (2, 1), (1, 1), (2, 1), (1, 2)]	NA	NA	NA	NA	NA	NA	NA	NA	NA	NA	NA	NA	NA	NA	NA	NA	NA	NA	NA	NA	NA	NA	NA	NA	0	0	0	0	0	1	1	58	NA	NA	NA	NA	NA	NA	NA	NA	NA	NA	NA	NA	NA	NA	NA	NA	NA	NA	NA	NA	NA	NA	NA	NA	NA	NA	NA	NA	NA	659.4034689001273	['left', 'left', 'right', 'left', 'right', 'right']	[6.647318099858239, 8.8306055997964, 10.567690199706703, 12.899565499741584, 15.492491399869323, 17.10363889974542]	NA	NA	NA	NA	pme	001	2026-02-17_14h16.37.585	SS	2023.1.0	60.01694877565282	NA
[(1, 2), (2, 1), (2, 0), (1, 2), (1, 0), (0, 0), (2, 0), (1, 0), (1, 2)]	NA	NA	NA	NA	NA	NA	NA	NA	NA	NA	NA	NA	NA	NA	NA	NA	NA	NA	NA	NA	NA	NA	NA	NA	0	0	0	0	0	2	2	622	NA	NA	NA	NA	NA	NA	NA	NA	NA	NA	NA	NA	NA	NA	NA	NA	NA	NA	NA	NA	NA	NA	NA	NA	NA	NA	NA	NA	NA	678.4137303000316	['right', 'left', 'left', 'right', 'right', 'right']	[6.621226500021294, 8.631413399940357, 11.018196599790826, 12.869141799863428, 14.805165499914438, 16.69099419983104]	NA	NA	NA	NA	pme	001	2026-02-17_14h16.37.585	SS	2023.1.0	60.01694877565282	NA
[(2, 0), (2, 2), (2, 2), (0, 1), (2, 1), (2, 2), (2, 2), (2, 1), (2, 0)]	NA	NA	NA	NA	NA	NA	NA	NA	NA	NA	NA	NA	NA	NA	NA	NA	NA	NA	NA	NA	NA	NA	NA	NA	0	0	0	0	0	3	3	548	NA	NA	NA	NA	NA	NA	NA	NA	NA	NA	NA	NA	NA	NA	NA	NA	NA	NA	NA	NA	NA	NA	NA	NA	NA	NA	NA	NA	NA	697.3982866001315	['left', 'left', 'right', 'left', 'right', 'left']	[6.685482299886644, 8.696964700007811, 10.606762500014156, 12.862966799875721, 14.927893999963999, 16.883725999854505]	NA	NA	NA	NA	pme	001	2026-02-17_14h16.37.585	SS	2023.1.0	60.01694877565282	NA
[(2, 1), (0, 1), (2, 0), (2, 1), (0, 1), (2, 2), (0, 0), (2, 0), (2, 1)]	NA	NA	NA	NA	NA	NA	NA	NA	NA	NA	NA	NA	NA	NA	NA	NA	NA	NA	NA	NA	NA	NA	NA	NA	0	0	0	0	0	4	4	601	NA	NA	NA	NA	NA	NA	NA	NA	NA	NA	NA	NA	NA	NA	NA	NA	NA	NA	NA	NA	NA	NA	NA	NA	NA	NA	NA	NA	NA	716.4085699000861	['right', 'right', 'left', 'left', 'left', 'left']	[6.608251099940389, 8.438272799830884, 10.587364400038496, 12.744281599996611, 14.98633769992739, 16.816498899832368]	NA	NA	NA	NA	pme	001	2026-02-17_14h16.37.585	SS	2023.1.0	60.01694877565282	NA
[(1, 2), (2, 0), (1, 1), (1, 2), (1, 2), (0, 0), (0, 0), (2, 0), (0, 0)]	NA	NA	NA	NA	NA	NA	NA	NA	NA	NA	NA	NA	NA	NA	NA	NA	NA	NA	NA	NA	NA	NA	NA	NA	0	0	0	0	0	5	5	243	NA	NA	NA	NA	NA	NA	NA	NA	NA	NA	NA	NA	NA	NA	NA	NA	NA	NA	NA	NA	NA	NA	NA	NA	NA	NA	NA	NA	NA	735.3929675000254	['right', 'left', 'left', 'left', 'left', 'right']	[6.653832399751991, 8.723321199882776, 10.659202199894935, 12.774859899887815, 14.962675099726766, 16.842929899692535]	NA	NA	NA	NA	pme	001	2026-02-17_14h16.37.585	SS	2023.1.0	60.01694877565282	NA
NA	NA	NA	NA	NA	NA	NA	NA	NA	NA	NA	NA	NA	NA	NA	NA	NA	NA	NA	NA	NA	NA	NA	NA	NA	0	0	0	0	NA	NA	NA	NA	NA	NA	NA	NA	NA	NA	NA	NA	NA	NA	NA	NA	NA	NA	NA	NA	NA	NA	NA	NA	NA	NA	NA	NA	NA	NA	NA	NA	NA	NA	NA	NA	NA	NA	NA	NA	pme	001	2026-02-17_14h16.37.585	SS	2023.1.0	60.01694877565282	NA
[(1, 2), (1, 0), (1, 0), (2, 2), (1, 0), (1, 1), (2, 2), (1, 1), (2, 1)]	NA	NA	NA	NA	NA	NA	NA	NA	NA	NA	NA	NA	NA	NA	NA	NA	NA	NA	NA	NA	NA	NA	NA	NA	1	0	1	0	0	0	0	589	NA	NA	NA	NA	NA	NA	NA	NA	NA	NA	NA	NA	NA	NA	NA	NA	NA	NA	NA	NA	NA	NA	NA	NA	NA	NA	NA	NA	NA	756.0364626999944	['left', 'right', 'left', 'right', 'right', 'left']	[6.685154400067404, 8.581708499928936, 10.612203099997714, 12.549776300089434, 14.736265300074592, 16.801574199926108]	NA	NA	NA	NA	pme	001	2026-02-17_14h16.37.585	SS	2023.1.0	60.01694877565282	NA
[(0, 2), (2, 2), (1, 2), (0, 2), (2, 0), (1, 2), (1, 0), (0, 0), (1, 0)]	NA	NA	NA	NA	NA	NA	NA	NA	NA	NA	NA	NA	NA	NA	NA	NA	NA	NA	NA	NA	NA	NA	NA	NA	1	0	1	0	0	1	1	652	NA	NA	NA	NA	NA	NA	NA	NA	NA	NA	NA	NA	NA	NA	NA	NA	NA	NA	NA	NA	NA	NA	NA	NA	NA	NA	NA	NA	NA	775.0170756001025	['right', 'left', 'right', 'left', 'left', 'right']	[6.842292599845678, 8.805489999707788, 10.870295699918643, 12.774278299883008, 14.997939599910751, 16.880235699936748]	NA	NA	NA	NA	pme	001	2026-02-17_14h16.37.585	SS	2023.1.0	60.01694877565282	NA
[(1, 2), (0, 2), (2, 0), (0, 2), (2, 2), (2, 0), (2, 1), (2, 0), (2, 0)]	NA	NA	NA	NA	NA	NA	NA	NA	NA	NA	NA	NA	NA	NA	NA	NA	NA	NA	NA	NA	NA	NA	NA	NA	1	0	1	0	0	2	2	535	NA	NA	NA	NA	NA	NA	NA	NA	NA	NA	NA	NA	NA	NA	NA	NA	NA	NA	NA	NA	NA	NA	NA	NA	NA	NA	NA	NA	NA	794.0189916000236	['right', 'right', 'right', 'left', 'right', 'left']	[6.80284469993785, 8.889765299856663, 10.695032599847764, 12.705601299880072, 14.713852299842983, 17.108635999727994]	NA	NA	NA	NA	pme	001	2026-02-17_14h16.37.585	SS	2023.1.0	60.01694877565282	NA
[(2, 0), (1, 1), (2, 0), (0, 1), (2, 2), (1, 2), (0, 1), (2, 2), (1, 2)]	NA	NA	NA	NA	NA	NA	NA	NA	NA	NA	NA	NA	NA	NA	NA	NA	NA	NA	NA	NA	NA	NA	NA	NA	1	0	1	0	0	3	3	693	NA	NA	NA	NA	NA	NA	NA	NA	NA	NA	NA	NA	NA	NA	NA	NA	NA	NA	NA	NA	NA	NA	NA	NA	NA	NA	NA	NA	NA	813.0151252001524	['left', 'left', 'left', 'right', 'right', 'right']	[6.773484699893743, 8.61224259994924, 10.663713800022379, 12.58361510001123, 14.606715600006282, 16.51488749985583]	NA	NA	NA	NA	pme	001	2026-02-17_14h16.37.585	SS	2023.1.0	60.01694877565282	NA
[(2, 0), (0, 2), (2, 1), (2, 0), (0, 2), (2, 2), (0, 0), (2, 0), (0, 1)]	NA	NA	NA	NA	NA	NA	NA	NA	NA	NA	NA	NA	NA	NA	NA	NA	NA	NA	NA	NA	NA	NA	NA	NA	1	0	1	0	0	4	4	66	NA	NA	NA	NA	NA	NA	NA	NA	NA	NA	NA	NA	NA	NA	NA	NA	NA	NA	NA	NA	NA	NA	NA	NA	NA	NA	NA	NA	NA	831.9938025001902	['left', 'right', 'left', 'left', 'right', 'left']	[6.971728099975735, 8.581927599851042, 10.65619820007123, 12.811693700030446, 15.57743649999611, 16.869718699948862]	NA	NA	NA	NA	pme	001	2026-02-17_14h16.37.585	SS	2023.1.0	60.01694877565282	NA
[(2, 2), (2, 1), (0, 0), (2, 0), (1, 2), (0, 0), (0, 2), (0, 0), (0, 0)]	NA	NA	NA	NA	NA	NA	NA	NA	NA	NA	NA	NA	NA	NA	NA	NA	NA	NA	NA	NA	NA	NA	NA	NA	1	0	1	0	0	5	5	191	NA	NA	NA	NA	NA	NA	NA	NA	NA	NA	NA	NA	NA	NA	NA	NA	NA	NA	NA	NA	NA	NA	NA	NA	NA	NA	NA	NA	NA	850.9935512000229	['left', 'left', 'right', 'left', 'right', 'right']	[6.594428799813613, 8.865179099841043, 10.577514399774373, 12.643915199907497, 15.303660299861804, 16.89181789988652]	NA	NA	NA	NA	pme	001	2026-02-17_14h16.37.585	SS	2023.1.0	60.01694877565282	NA
NA	NA	NA	NA	NA	NA	NA	NA	NA	NA	NA	NA	NA	NA	NA	NA	NA	NA	NA	NA	NA	NA	NA	NA	NA	1	0	1	0	NA	NA	NA	NA	NA	NA	NA	NA	NA	NA	NA	NA	NA	NA	NA	NA	NA	NA	NA	NA	NA	NA	NA	NA	NA	NA	NA	NA	NA	NA	NA	NA	NA	NA	NA	NA	NA	NA	NA	NA	pme	001	2026-02-17_14h16.37.585	SS	2023.1.0	60.01694877565282	NA
[(0, 1), (0, 1), (1, 1), (2, 1), (2, 0), (0, 0), (1, 0), (2, 0), (2, 0), (0, 0)]	NA	NA	NA	NA	NA	NA	NA	NA	NA	NA	NA	NA	NA	NA	NA	NA	NA	NA	NA	NA	NA	NA	NA	NA	NA	NA	NA	NA	NA	NA	NA	NA	0	0	0	0	0	0	0	5	NA	NA	NA	NA	NA	NA	NA	NA	870.4705537001137	NA	NA	NA	NA	NA	NA	NA	NA	NA	NA	NA	NA	NA	NA	NA	873.5533397002146	874.5533433000091	['left', 'left', 'left', 'left', 'right', 'right']	[8.768325499957427, 10.761732099810615, 12.743702899897471, 15.024756500031799, 16.531719399848953, 18.568251800024882]	pme	001	2026-02-17_14h16.37.585	SS	2023.1.0	60.01694877565282	NA
[(2, 2), (0, 2), (1, 1), (1, 2), (1, 0), (0, 2), (1, 2), (1, 1), (0, 0), (0, 2)]	NA	NA	NA	NA	NA	NA	NA	NA	NA	NA	NA	NA	NA	NA	NA	NA	NA	NA	NA	NA	NA	NA	NA	NA	NA	NA	NA	NA	NA	NA	NA	NA	0	0	0	0	0	1	1	464	NA	NA	NA	NA	NA	NA	NA	NA	NA	NA	NA	NA	NA	NA	NA	NA	NA	NA	NA	NA	NA	NA	NA	NA	NA	895.5337108999956	['left', 'right', 'left', 'left', 'left', 'left']	[8.664152199868113, 11.247245299862698, 13.12840549973771, 15.433680099900812, 16.91875659977086, 19.101171199930832]	pme	001	2026-02-17_14h16.37.585	SS	2023.1.0	60.01694877565282	NA
[(2, 1), (1, 0), (2, 1), (2, 1), (0, 1), (1, 0), (2, 2), (2, 0), (2, 0), (1, 0)]	NA	NA	NA	NA	NA	NA	NA	NA	NA	NA	NA	NA	NA	NA	NA	NA	NA	NA	NA	NA	NA	NA	NA	NA	NA	NA	NA	NA	NA	NA	NA	NA	0	0	0	0	0	2	2	360	NA	NA	NA	NA	NA	NA	NA	NA	NA	NA	NA	NA	NA	NA	NA	NA	NA	NA	NA	NA	NA	NA	NA	NA	NA	916.534667200176	['left', 'right', 'left', 'left', 'left', 'left']	[8.860584299778566, 10.774070399813354, 12.707489699823782, 14.622122599976137, 16.81535689998418, 19.020523899933323]	pme	001	2026-02-17_14h16.37.585	SS	2023.1.0	60.01694877565282	NA
[(2, 0), (0, 0), (1, 0), (2, 1), (2, 2), (2, 2), (1, 0), (2, 1), (2, 1), (2, 1)]	NA	NA	NA	NA	NA	NA	NA	NA	NA	NA	NA	NA	NA	NA	NA	NA	NA	NA	NA	NA	NA	NA	NA	NA	NA	NA	NA	NA	NA	NA	NA	NA	0	0	0	0	0	3	3	75	NA	NA	NA	NA	NA	NA	NA	NA	NA	NA	NA	NA	NA	NA	NA	NA	NA	NA	NA	NA	NA	NA	NA	NA	NA	937.5445435000584	['left', 'left', 'left', 'right', 'left', 'right']	[8.672572999959812, 10.702814299846068, 12.941533499862999, 14.79963619983755, 17.25383079983294, 19.028283999767154]	pme	001	2026-02-17_14h16.37.585	SS	2023.1.0	60.01694877565282	NA
[(2, 1), (0, 1), (0, 0), (1, 2), (2, 1), (0, 2), (0, 0), (2, 1), (0, 1), (2, 2)]	NA	NA	NA	NA	NA	NA	NA	NA	NA	NA	NA	NA	NA	NA	NA	NA	NA	NA	NA	NA	NA	NA	NA	NA	NA	NA	NA	NA	NA	NA	NA	NA	0	0	0	0	0	4	4	51	NA	NA	NA	NA	NA	NA	NA	NA	NA	NA	NA	NA	NA	NA	NA	NA	NA	NA	NA	NA	NA	NA	NA	NA	NA	958.5293170001823	['left', 'right', 'left', 'right', 'right', 'left', 'left']	[9.4466564997565, 9.779880599817261, 10.669124399777502, 12.835031799739227, 15.000839799875394, 17.047984599834308, 18.829769799718633]	pme	001	2026-02-17_14h16.37.585	SS	2023.1.0	60.01694877565282	NA
[(1, 2), (1, 2), (0, 0), (0, 1), (1, 2), (1, 0), (1, 2), (1, 0), (1, 2), (1, 2)]	NA	NA	NA	NA	NA	NA	NA	NA	NA	NA	NA	NA	NA	NA	NA	NA	NA	NA	NA	NA	NA	NA	NA	NA	NA	NA	NA	NA	NA	NA	NA	NA	0	0	0	0	0	5	5	92	NA	NA	NA	NA	NA	NA	NA	NA	NA	NA	NA	NA	NA	NA	NA	NA	NA	NA	NA	NA	NA	NA	NA	NA	NA	979.5387562999967	['right', 'left', 'left', 'right', 'left', 'right']	[8.416757900035009, 10.601190800080076, 13.041213999968022, 15.183473600074649, 17.15703190001659, 18.80917700007558]	pme	001	2026-02-17_14h16.37.585	SS	2023.1.0	60.01694877565282	NA
NA	NA	NA	NA	NA	NA	NA	NA	NA	NA	NA	NA	NA	NA	NA	NA	NA	NA	NA	NA	NA	NA	NA	NA	NA	NA	NA	NA	NA	NA	NA	NA	NA	0	0	0	0	NA	NA	NA	NA	NA	NA	NA	NA	NA	NA	NA	NA	NA	NA	NA	NA	NA	NA	NA	NA	NA	NA	NA	NA	NA	NA	NA	NA	NA	NA	NA	NA	pme	001	2026-02-17_14h16.37.585	SS	2023.1.0	60.01694877565282	NA
[(2, 2), (1, 2), (2, 2), (1, 2), (1, 1), (2, 0), (0, 1), (1, 2), (0, 2), (2, 0)]	NA	NA	NA	NA	NA	NA	NA	NA	NA	NA	NA	NA	NA	NA	NA	NA	NA	NA	NA	NA	NA	NA	NA	NA	NA	NA	NA	NA	NA	NA	NA	NA	1	0	1	0	0	0	0	462	NA	NA	NA	NA	NA	NA	NA	NA	NA	NA	NA	NA	NA	NA	NA	NA	NA	NA	NA	NA	NA	NA	NA	NA	NA	1002.089363400126	['left', 'left', 'left', 'left', 'left', 'right']	[8.658201799960807, 10.608485199976712, 12.625274899881333, 14.880464799934998, 17.525860499823466, 18.677924199961126]	pme	001	2026-02-17_14h16.37.585	SS	2023.1.0	60.01694877565282	NA
[(0, 2), (2, 2), (2, 0), (2, 1), (0, 1), (1, 0), (2, 0), (2, 1), (1, 2), (0, 1)]	NA	NA	NA	NA	NA	NA	NA	NA	NA	NA	NA	NA	NA	NA	NA	NA	NA	NA	NA	NA	NA	NA	NA	NA	NA	NA	NA	NA	NA	NA	NA	NA	1	0	1	0	0	1	1	492	NA	NA	NA	NA	NA	NA	NA	NA	NA	NA	NA	NA	NA	NA	NA	NA	NA	NA	NA	NA	NA	NA	NA	NA	NA	1023.0865133001936	['left', 'left', 'right', 'right', 'left', 'right']	[8.697476899949834, 10.634488599840552, 12.652575599728152, 14.499578399816528, 16.763760399771854, 18.552346699871123]	pme	001	2026-02-17_14h16.37.585	SS	2023.1.0	60.01694877565282	NA
[(1, 2), (2, 1), (0, 0), (0, 1), (1, 1), (2, 1), (1, 2), (1, 2), (1, 1), (0, 1)]	NA	NA	NA	NA	NA	NA	NA	NA	NA	NA	NA	NA	NA	NA	NA	NA	NA	NA	NA	NA	NA	NA	NA	NA	NA	NA	NA	NA	NA	NA	NA	NA	1	0	1	0	0	2	2	636	NA	NA	NA	NA	NA	NA	NA	NA	NA	NA	NA	NA	NA	NA	NA	NA	NA	NA	NA	NA	NA	NA	NA	NA	NA	1044.0838342001662	['left', 'right', 'left', 'left', 'left', 'right']	[8.614022199762985, 10.758558899862692, 12.71411049971357, 14.715519299730659, 16.772713199723512, 18.713857799768448]	pme	001	2026-02-17_14h16.37.585	SS	2023.1.0	60.01694877565282	NA
[(0, 0), (2, 0), (0, 2), (1, 0), (0, 0), (2, 0), (1, 0), (2, 2), (0, 0), (2, 1)]	NA	NA	NA	NA	NA	NA	NA	NA	NA	NA	NA	NA	NA	NA	NA	NA	NA	NA	NA	NA	NA	NA	NA	NA	NA	NA	NA	NA	NA	NA	NA	NA	1	0	1	0	0	3	3	420	NA	NA	NA	NA	NA	NA	NA	NA	NA	NA	NA	NA	NA	NA	NA	NA	NA	NA	NA	NA	NA	NA	NA	NA	NA	1065.0935491002165	['right', 'right', 'left', 'left', 'right', 'left']	[8.826163199730217, 10.597585099749267, 12.851515299873427, 14.756661399733275, 16.896886199712753, 18.89501929981634]	pme	001	2026-02-17_14h16.37.585	SS	2023.1.0	60.01694877565282	NA
[(1, 0), (1, 0), (0, 0), (1, 2), (2, 0), (2, 2), (0, 0), (1, 2), (0, 1), (1, 2)]	NA	NA	NA	NA	NA	NA	NA	NA	NA	NA	NA	NA	NA	NA	NA	NA	NA	NA	NA	NA	NA	NA	NA	NA	NA	NA	NA	NA	NA	NA	NA	NA	1	0	1	0	0	4	4	198	NA	NA	NA	NA	NA	NA	NA	NA	NA	NA	NA	NA	NA	NA	NA	NA	NA	NA	NA	NA	NA	NA	NA	NA	NA	1086.0905931000598	['left', 'left', 'right', 'left', 'left']	[8.535584700061008, 10.472093899967149, 14.441488400101662, 16.566872800001875, 18.702432699967176]	pme	001	2026-02-17_14h16.37.585	SS	2023.1.0	60.01694877565282	NA
[(2, 0), (1, 0), (0, 1), (0, 0), (1, 0), (1, 0), (0, 1), (2, 1), (1, 0), (0, 0)]	NA	NA	NA	NA	NA	NA	NA	NA	NA	NA	NA	NA	NA	NA	NA	NA	NA	NA	NA	NA	NA	NA	NA	NA	NA	NA	NA	NA	NA	NA	NA	NA	1	0	1	0	0	5	5	185	NA	NA	NA	NA	NA	NA	NA	NA	NA	NA	NA	NA	NA	NA	NA	NA	NA	NA	NA	NA	NA	NA	NA	NA	NA	1107.0877053001896	['left', 'right', 'right', 'left', 'right', 'left']	[9.267828499898314, 10.692853999789804, 12.921244899975136, 14.645094699924812, 16.614396499935538, 19.170296299969777]	pme	001	2026-02-17_14h16.37.585	SS	2023.1.0	60.01694877565282	NA
NA	NA	NA	NA	NA	NA	NA	NA	NA	NA	NA	NA	NA	NA	NA	NA	NA	NA	NA	NA	NA	NA	NA	NA	NA	NA	NA	NA	NA	NA	NA	NA	NA	1	0	1	0	NA	NA	NA	NA	NA	NA	NA	NA	NA	NA	NA	NA	NA	NA	NA	NA	NA	NA	NA	NA	NA	NA	NA	NA	NA	NA	NA	NA	NA	NA	NA	NA	pme	001	2026-02-17_14h16.37.585	SS	2023.1.0	60.01694877565282	NA
