imagefile	stimfile	corrAns	MRdir	angle	training.thisRepN	training.thisTrialN	training.thisN	training.thisIndex	mentalrot_trials.thisRepN	mentalrot_trials.thisTrialN	mentalrot_trials.thisN	mentalrot_trials.thisIndex	blank.started	mr_answ_2.started	mr_answ_2.keys	mr_answ_2.corr	mr_answ_2.rt	blank.stopped	mr_answ.started	mr_answ.keys	mr_answ.corr	mr_answ.rt	byebye_text.started	byebye_text.stopped	participant	session	date	expName	psychopyVersion	frameRate	...32
mr_images/6_b.png	mr_images/6_b_z_270.png	left	ccw	90	0	0	0	163	NA	NA	NA	NA	141.3533082001377	141.86992210010067	left	1	3.0047310998197645	NA	NA	NA	NA	NA	NA	NA	pme	001	2026-02-17_15h03.42.378	MR	2023.1.0	60.03719910816333	NA
mr_images/3_a.png	mr_images/3_a_z_315.png	left	ccw	45	0	1	1	75	NA	NA	NA	NA	144.90291930013336	145.48841330013238	right	0	2.3598407998215407	145.48841330013238	NA	NA	NA	NA	NA	NA	pme	001	2026-02-17_15h03.42.378	MR	2023.1.0	60.03719910816333	NA
mr_images/12_a.png	mr_images/12_a_z_270.png	left	ccw	90	0	2	2	55	NA	NA	NA	NA	147.87353130010888	148.4524530000053	left	1	2.349521999945864	148.4524530000053	NA	NA	NA	NA	NA	NA	pme	001	2026-02-17_15h03.42.378	MR	2023.1.0	60.03719910816333	NA
mr_images/12_b.png	mr_images/12_b_z_135.png	left	cw	135	0	3	3	69	NA	NA	NA	NA	150.81879630009644	151.40217930008657	left	1	1.887851799838245	151.40217930008657	NA	NA	NA	NA	NA	NA	pme	001	2026-02-17_15h03.42.378	MR	2023.1.0	60.03719910816333	NA
mr_images/4_b.png	mr_images/4_b_z_315.png	left	ccw	45	0	4	4	111	NA	NA	NA	NA	153.3184762999881	153.9017570000142	right	0	1.6942259997595102	153.9017570000142	NA	NA	NA	NA	NA	NA	pme	001	2026-02-17_15h03.42.378	MR	2023.1.0	60.03719910816333	NA
mr_images/12_b.png	mr_images/12_b_z_45.png	left	cw	45	NA	NA	NA	NA	0	0	0	61	161.10070660011843	NA	NA	NA	NA	NA	161.56729430006817	left	1	2.963917799759656	NA	NA	pme	001	2026-02-17_15h03.42.378	MR	2023.1.0	60.03719910816333	NA
mr_images/5_b.png	mr_images/5_b_z_270.png	left	ccw	90	NA	NA	NA	NA	0	1	1	139	164.55016100010835	NA	NA	NA	NA	165.1333308001049	165.1333308001049	left	1	4.0767062997911125	NA	NA	pme	001	2026-02-17_15h03.42.378	MR	2023.1.0	60.03719910816333	NA
mr_images/5_a.png	mr_images/5_b_z_315.png	right	ccw	45	NA	NA	NA	NA	0	2	2	122	169.23292520013638	NA	NA	NA	NA	169.81634890008718	169.81634890008718	left	0	2.695545399794355	NA	NA	pme	001	2026-02-17_15h03.42.378	MR	2023.1.0	60.03719910816333	NA
mr_images/12_b.png	mr_images/12_a_z_225.png	right	ccw	135	NA	NA	NA	NA	0	3	3	70	172.53245580010116	NA	NA	NA	NA	173.09902850002982	173.09902850002982	right	1	2.814353499794379	NA	NA	pme	001	2026-02-17_15h03.42.378	MR	2023.1.0	60.03719910816333	NA
mr_images/7_a.png	mr_images/7_b_z_315.png	right	ccw	45	NA	NA	NA	NA	0	4	4	170	175.93198799993843	NA	NA	NA	NA	176.51527999993414	176.51527999993414	left	0	1.6578497998416424	NA	NA	pme	001	2026-02-17_15h03.42.378	MR	2023.1.0	60.03719910816333	NA
mr_images/3_a.png	mr_images/3_a_z_270.png	left	ccw	90	NA	NA	NA	NA	0	5	5	79	178.1982809000183	NA	NA	NA	NA	178.7649803000968	178.7649803000968	right	0	2.7305398997850716	NA	NA	pme	001	2026-02-17_15h03.42.378	MR	2023.1.0	60.03719910816333	NA
mr_images/5_b.png	mr_images/5_a_z_90.png	right	cw	90	NA	NA	NA	NA	0	6	6	136	181.5144806001335	NA	NA	NA	NA	182.08301499998197	182.08301499998197	left	0	2.0986385999713093	NA	NA	pme	001	2026-02-17_15h03.42.378	MR	2023.1.0	60.03719910816333	NA
mr_images/4_b.png	mr_images/4_b_z_225.png	left	ccw	135	NA	NA	NA	NA	0	7	7	119	184.2017429000698	NA	NA	NA	NA	184.74738469999284	184.74738469999284	right	0	3.354947199812159	NA	NA	pme	001	2026-02-17_15h03.42.378	MR	2023.1.0	60.03719910816333	NA
mr_images/7_a.png	mr_images/7_a_z_135.png	left	cw	135	NA	NA	NA	NA	0	8	8	177	188.13028739998117	NA	NA	NA	NA	188.6969155999832	188.6969155999832	right	0	3.193708499893546	NA	NA	pme	001	2026-02-17_15h03.42.378	MR	2023.1.0	60.03719910816333	NA
mr_images/12_a.png	mr_images/12_b_z_45.png	right	cw	45	NA	NA	NA	NA	0	9	9	48	191.9131044999231	NA	NA	NA	NA	192.4465306000784	192.4465306000784	right	1	3.2118492999579757	NA	NA	pme	001	2026-02-17_15h03.42.378	MR	2023.1.0	60.03719910816333	NA
mr_images/5_b.png	mr_images/5_a_z_270.png	right	ccw	90	NA	NA	NA	NA	0	10	10	138	195.67919040005657	NA	NA	NA	NA	196.2458995000925	196.2458995000925	left	0	2.5570289997849613	NA	NA	pme	001	2026-02-17_15h03.42.378	MR	2023.1.0	60.03719910816333	NA
mr_images/9_a.png	mr_images/9_b_z_225.png	right	ccw	135	NA	NA	NA	NA	0	11	11	202	198.8287555000279	NA	NA	NA	NA	199.4119589999318	199.4119589999318	left	0	3.353086399845779	NA	NA	pme	001	2026-02-17_15h03.42.378	MR	2023.1.0	60.03719910816333	NA
mr_images/3_a.png	mr_images/3_b_z_225.png	right	ccw	135	NA	NA	NA	NA	0	12	12	82	202.79488510009833	NA	NA	NA	NA	203.3620388000272	203.3620388000272	left	0	3.297721799928695	NA	NA	pme	001	2026-02-17_15h03.42.378	MR	2023.1.0	60.03719910816333	NA
mr_images/9_b.png	mr_images/9_a_z_90.png	right	cw	90	NA	NA	NA	NA	0	13	13	208	206.67786890012212	NA	NA	NA	NA	207.26096149999648	207.26096149999648	right	1	2.939971199957654	NA	NA	pme	001	2026-02-17_15h03.42.378	MR	2023.1.0	60.03719910816333	NA
mr_images/11_a.png	mr_images/11_b_z_225.png	right	ccw	135	NA	NA	NA	NA	0	14	14	34	210.22722360002808	NA	NA	NA	NA	210.81061509996653	210.81061509996653	left	0	3.081438499968499	NA	NA	pme	001	2026-02-17_15h03.42.378	MR	2023.1.0	60.03719910816333	NA
mr_images/7_b.png	mr_images/7_a_z_45.png	right	cw	45	NA	NA	NA	NA	0	15	15	180	213.91018050001003	NA	NA	NA	NA	214.4932699999772	214.4932699999772	left	0	4.0025713997893035	NA	NA	pme	001	2026-02-17_15h03.42.378	MR	2023.1.0	60.03719910816333	NA
mr_images/1_b.png	mr_images/1_a_z_225.png	right	ccw	135	NA	NA	NA	NA	0	16	16	22	218.5261594001204	NA	NA	NA	NA	219.0982322001364	219.0982322001364	left	0	2.4103511997964233	NA	NA	pme	001	2026-02-17_15h03.42.378	MR	2023.1.0	60.03719910816333	NA
mr_images/1_b.png	mr_images/1_b_z_90.png	left	cw	90	NA	NA	NA	NA	0	17	17	17	221.5299062000122	NA	NA	NA	NA	222.0927764000371	222.0927764000371	right	0	4.635071999859065	NA	NA	pme	001	2026-02-17_15h03.42.378	MR	2023.1.0	60.03719910816333	NA
mr_images/12_a.png	mr_images/12_b_z_315.png	right	ccw	45	NA	NA	NA	NA	0	18	18	50	226.7584249000065	NA	NA	NA	NA	227.32494379999116	227.32494379999116	left	0	2.607498499797657	NA	NA	pme	001	2026-02-17_15h03.42.378	MR	2023.1.0	60.03719910816333	NA
mr_images/6_b.png	mr_images/6_b_z_225.png	left	ccw	135	NA	NA	NA	NA	0	19	19	167	229.95802110014483	NA	NA	NA	NA	230.52444640011527	230.52444640011527	right	0	3.2142135999165475	NA	NA	pme	001	2026-02-17_15h03.42.378	MR	2023.1.0	60.03719910816333	NA
mr_images/9_a.png	mr_images/9_a_z_225.png	left	ccw	135	NA	NA	NA	NA	0	20	20	203	233.75722289993428	NA	NA	NA	NA	234.31001639994793	234.31001639994793	left	1	2.5198650998063385	NA	NA	pme	001	2026-02-17_15h03.42.378	MR	2023.1.0	60.03719910816333	NA
mr_images/11_b.png	mr_images/11_a_z_90.png	right	cw	90	NA	NA	NA	NA	0	21	21	40	236.86109880008735	NA	NA	NA	NA	237.4441504001152	237.4441504001152	None	0	NA	NA	NA	pme	001	2026-02-17_15h03.42.378	MR	2023.1.0	60.03719910816333	NA
mr_images/4_b.png	mr_images/4_a_z_90.png	right	cw	90	NA	NA	NA	NA	0	22	22	112	242.3770532000344	NA	NA	NA	NA	NA	242.9442634000443	left	0	2.2871261998079717	NA	NA	pme	001	2026-02-17_15h03.42.378	MR	2023.1.0	60.03719910816333	NA
mr_images/7_a.png	mr_images/7_a_z_315.png	left	ccw	45	NA	NA	NA	NA	0	23	23	171	245.2599385001231	NA	NA	NA	NA	245.82342440006323	245.82342440006323	right	0	2.3753935999702662	NA	NA	pme	001	2026-02-17_15h03.42.378	MR	2023.1.0	60.03719910816333	NA
mr_images/4_a.png	mr_images/4_a_z_270.png	left	ccw	90	NA	NA	NA	NA	0	24	24	103	248.22196640004404	NA	NA	NA	NA	248.80533870006911	248.80533870006911	right	0	2.930000399937853	NA	NA	pme	001	2026-02-17_15h03.42.378	MR	2023.1.0	60.03719910816333	NA
mr_images/3_b.png	mr_images/3_a_z_90.png	right	cw	90	NA	NA	NA	NA	0	25	25	88	251.75477849994783	NA	NA	NA	NA	252.34203840000555	252.34203840000555	left	0	3.517128299921751	NA	NA	pme	001	2026-02-17_15h03.42.378	MR	2023.1.0	60.03719910816333	NA
mr_images/1_b.png	mr_images/1_a_z_135.png	right	cw	135	NA	NA	NA	NA	0	26	26	20	255.87514499993995	NA	NA	NA	NA	256.43743990012445	256.43743990012445	left	0	2.021902000065893	NA	NA	pme	001	2026-02-17_15h03.42.378	MR	2023.1.0	60.03719910816333	NA
mr_images/6_a.png	mr_images/6_a_z_270.png	left	ccw	90	NA	NA	NA	NA	0	27	27	151	258.48720939992927	NA	NA	NA	NA	259.0705997000914	259.0705997000914	right	0	2.5394510999321938	NA	NA	pme	001	2026-02-17_15h03.42.378	MR	2023.1.0	60.03719910816333	NA
mr_images/7_b.png	mr_images/7_a_z_225.png	right	ccw	135	NA	NA	NA	NA	0	28	28	190	261.6367294001393	NA	NA	NA	NA	262.20350750000216	262.20350750000216	left	0	3.54086109995842	NA	NA	pme	001	2026-02-17_15h03.42.378	MR	2023.1.0	60.03719910816333	NA
mr_images/3_a.png	mr_images/3_b_z_45.png	right	cw	45	NA	NA	NA	NA	0	29	29	72	265.7694926999975	NA	NA	NA	NA	266.3361635999754	266.3361635999754	left	0	3.840377199929208	NA	NA	pme	001	2026-02-17_15h03.42.378	MR	2023.1.0	60.03719910816333	NA
mr_images/11_a.png	mr_images/11_a_z_45.png	left	cw	45	NA	NA	NA	NA	0	30	30	25	270.20220279996283	NA	NA	NA	NA	270.76884109992534	270.76884109992534	right	0	3.0189841997344047	NA	NA	pme	001	2026-02-17_15h03.42.378	MR	2023.1.0	60.03719910816333	NA
mr_images/1_b.png	mr_images/1_a_z_315.png	right	ccw	45	NA	NA	NA	NA	0	31	31	14	273.8184324000031	NA	NA	NA	NA	274.3849802000914	274.3849802000914	left	0	2.277969299815595	NA	NA	pme	001	2026-02-17_15h03.42.378	MR	2023.1.0	60.03719910816333	NA
mr_images/3_b.png	mr_images/3_b_z_270.png	left	ccw	90	NA	NA	NA	NA	0	32	32	91	276.68472400004975	NA	NA	NA	NA	277.2372860999312	277.2372860999312	right	0	3.683145900024101	NA	NA	pme	001	2026-02-17_15h03.42.378	MR	2023.1.0	60.03719910816333	NA
mr_images/11_a.png	mr_images/11_b_z_135.png	right	cw	135	NA	NA	NA	NA	0	33	33	32	280.9383489000611	NA	NA	NA	NA	281.5005320000928	281.5005320000928	left	0	4.743529099738225	NA	NA	pme	001	2026-02-17_15h03.42.378	MR	2023.1.0	60.03719910816333	NA
mr_images/6_b.png	mr_images/6_a_z_225.png	right	ccw	135	NA	NA	NA	NA	0	34	34	166	286.26662459992804	NA	NA	NA	NA	286.8332694999408	286.8332694999408	left	0	2.299075599759817	NA	NA	pme	001	2026-02-17_15h03.42.378	MR	2023.1.0	60.03719910816333	NA
mr_images/6_a.png	mr_images/6_b_z_315.png	right	ccw	45	NA	NA	NA	NA	0	35	35	146	289.14964359998703	NA	NA	NA	NA	289.71611630008556	289.71611630008556	left	0	1.7414084998890758	NA	NA	pme	001	2026-02-17_15h03.42.378	MR	2023.1.0	60.03719910816333	NA
mr_images/4_b.png	mr_images/4_b_z_90.png	left	cw	90	NA	NA	NA	NA	0	36	36	113	291.48264920013025	NA	NA	NA	NA	292.0492444001138	292.0492444001138	right	0	4.3168993999715894	NA	NA	pme	001	2026-02-17_15h03.42.378	MR	2023.1.0	60.03719910816333	NA
mr_images/4_a.png	mr_images/4_b_z_135.png	right	cw	135	NA	NA	NA	NA	0	37	37	104	296.3985967000481	NA	NA	NA	NA	NA	296.9542678000871	left	0	2.5535074998624623	NA	NA	pme	001	2026-02-17_15h03.42.378	MR	2023.1.0	60.03719910816333	NA
mr_images/7_b.png	mr_images/7_b_z_315.png	left	ccw	45	NA	NA	NA	NA	0	38	38	183	299.53578540007584	NA	NA	NA	NA	300.0663324999623	300.0663324999623	right	0	3.682390399742871	NA	NA	pme	001	2026-02-17_15h03.42.378	MR	2023.1.0	60.03719910816333	NA
mr_images/12_a.png	mr_images/12_a_z_90.png	left	cw	90	NA	NA	NA	NA	0	39	39	53	303.7809487001505	NA	NA	NA	NA	304.3505500999745	304.3505500999745	right	0	3.750467099715024	NA	NA	pme	001	2026-02-17_15h03.42.378	MR	2023.1.0	60.03719910816333	NA
mr_images/4_a.png	mr_images/4_a_z_135.png	left	cw	135	NA	NA	NA	NA	0	40	40	105	308.11787610012107	NA	NA	NA	NA	308.6803117999807	308.6803117999807	left	1	2.0368927996605635	NA	NA	pme	001	2026-02-17_15h03.42.378	MR	2023.1.0	60.03719910816333	NA
mr_images/6_a.png	mr_images/6_a_z_225.png	left	ccw	135	NA	NA	NA	NA	0	41	41	155	310.74676560005173	NA	NA	NA	NA	311.2799430000596	311.2799430000596	right	0	4.221975299762562	NA	NA	pme	001	2026-02-17_15h03.42.378	MR	2023.1.0	60.03719910816333	NA
mr_images/6_b.png	mr_images/6_b_z_270.png	left	ccw	90	NA	NA	NA	NA	0	42	42	163	315.5294568000827	NA	NA	NA	NA	316.06249339994974	316.06249339994974	left	1	3.6037409000564367	NA	NA	pme	001	2026-02-17_15h03.42.378	MR	2023.1.0	60.03719910816333	NA
mr_images/12_a.png	mr_images/12_a_z_135.png	left	cw	135	NA	NA	NA	NA	0	43	43	57	319.69536520005204	NA	NA	NA	NA	320.26222910010256	320.26222910010256	left	1	4.409779999870807	NA	NA	pme	001	2026-02-17_15h03.42.378	MR	2023.1.0	60.03719910816333	NA
mr_images/9_b.png	mr_images/9_b_z_225.png	left	ccw	135	NA	NA	NA	NA	0	44	44	215	324.6946569001302	NA	NA	NA	NA	325.2292082000058	325.2292082000058	right	0	1.4380798998754472	NA	NA	pme	001	2026-02-17_15h03.42.378	MR	2023.1.0	60.03719910816333	NA
mr_images/1_a.png	mr_images/1_a_z_315.png	left	ccw	45	NA	NA	NA	NA	0	45	45	3	326.6943963000085	NA	NA	NA	NA	327.2609898999799	327.2609898999799	right	0	4.385187599807978	NA	NA	pme	001	2026-02-17_15h03.42.378	MR	2023.1.0	60.03719910816333	NA
mr_images/5_a.png	mr_images/5_b_z_270.png	right	ccw	90	NA	NA	NA	NA	0	46	46	126	331.67722410010174	NA	NA	NA	NA	332.2104553999379	332.2104553999379	left	0	2.2789157999213785	NA	NA	pme	001	2026-02-17_15h03.42.378	MR	2023.1.0	60.03719910816333	NA
mr_images/9_b.png	mr_images/9_b_z_270.png	left	ccw	90	NA	NA	NA	NA	0	47	47	211	334.510010200087	NA	NA	NA	NA	335.0765257999301	335.0765257999301	right	0	2.9931929998565465	NA	NA	pme	001	2026-02-17_15h03.42.378	MR	2023.1.0	60.03719910816333	NA
mr_images/4_b.png	mr_images/4_b_z_45.png	left	cw	45	NA	NA	NA	NA	0	48	48	109	338.0928338000085	NA	NA	NA	NA	338.64765499997884	338.64765499997884	right	0	2.7473038998432457	NA	NA	pme	001	2026-02-17_15h03.42.378	MR	2023.1.0	60.03719910816333	NA
mr_images/6_b.png	mr_images/6_b_z_45.png	left	cw	45	NA	NA	NA	NA	0	49	49	157	341.41329320007935	NA	NA	NA	NA	341.9755015000701	341.9755015000701	None	0	NA	NA	NA	pme	001	2026-02-17_15h03.42.378	MR	2023.1.0	60.03719910816333	NA
mr_images/6_b.png	mr_images/6_a_z_45.png	right	cw	45	NA	NA	NA	NA	0	50	50	156	346.9249317001086	NA	NA	NA	NA	NA	347.4916308000684	left	0	2.6100409999489784	NA	NA	pme	001	2026-02-17_15h03.42.378	MR	2023.1.0	60.03719910816333	NA
mr_images/4_a.png	mr_images/4_b_z_225.png	right	ccw	135	NA	NA	NA	NA	0	51	51	106	350.12461520009674	NA	NA	NA	NA	350.65768090006895	350.65768090006895	left	0	2.0634551998227835	NA	NA	pme	001	2026-02-17_15h03.42.378	MR	2023.1.0	60.03719910816333	NA
mr_images/9_b.png	mr_images/9_a_z_135.png	right	cw	135	NA	NA	NA	NA	0	52	52	212	352.7409093999304	NA	NA	NA	NA	353.3073841999285	353.3073841999285	left	0	4.072756299981847	NA	NA	pme	001	2026-02-17_15h03.42.378	MR	2023.1.0	60.03719910816333	NA
mr_images/12_a.png	mr_images/12_b_z_225.png	right	ccw	135	NA	NA	NA	NA	0	53	53	58	357.4068438000977	NA	NA	NA	NA	357.97343769995496	357.97343769995496	left	0	4.736302000004798	NA	NA	pme	001	2026-02-17_15h03.42.378	MR	2023.1.0	60.03719910816333	NA
mr_images/4_b.png	mr_images/4_b_z_270.png	left	ccw	90	NA	NA	NA	NA	0	54	54	115	362.7393809999339	NA	NA	NA	NA	363.31014290009625	363.31014290009625	right	0	2.4347596999723464	NA	NA	pme	001	2026-02-17_15h03.42.378	MR	2023.1.0	60.03719910816333	NA
mr_images/5_b.png	mr_images/5_b_z_90.png	left	cw	90	NA	NA	NA	NA	0	55	55	137	365.7765450000297	NA	NA	NA	NA	366.3389564999379	366.3389564999379	left	1	3.7733279997482896	NA	NA	pme	001	2026-02-17_15h03.42.378	MR	2023.1.0	60.03719910816333	NA
mr_images/1_a.png	mr_images/1_a_z_90.png	left	cw	90	NA	NA	NA	NA	0	56	56	5	370.1385663000401	NA	NA	NA	NA	370.7050322999712	370.7050322999712	right	0	4.235522300004959	NA	NA	pme	001	2026-02-17_15h03.42.378	MR	2023.1.0	60.03719910816333	NA
mr_images/9_b.png	mr_images/9_b_z_135.png	left	cw	135	NA	NA	NA	NA	0	57	57	213	374.97106699994765	NA	NA	NA	NA	375.5376333999447	375.5376333999447	None	0	NA	NA	NA	pme	001	2026-02-17_15h03.42.378	MR	2023.1.0	60.03719910816333	NA
mr_images/1_b.png	mr_images/1_a_z_45.png	right	cw	45	NA	NA	NA	NA	0	58	58	12	380.4868759000674	NA	NA	NA	NA	NA	381.0535441001411	left	0	2.271750499960035	NA	NA	pme	001	2026-02-17_15h03.42.378	MR	2023.1.0	60.03719910816333	NA
mr_images/6_b.png	mr_images/6_a_z_90.png	right	cw	90	NA	NA	NA	NA	0	59	59	160	383.3531486999709	NA	NA	NA	NA	383.9199227001518	383.9199227001518	left	0	4.143871499923989	NA	NA	pme	001	2026-02-17_15h03.42.378	MR	2023.1.0	60.03719910816333	NA
mr_images/9_b.png	mr_images/9_a_z_45.png	right	cw	45	NA	NA	NA	NA	0	60	60	204	388.08583669993095	NA	NA	NA	NA	388.65262520010583	388.65262520010583	left	0	2.1964715998619795	NA	NA	pme	001	2026-02-17_15h03.42.378	MR	2023.1.0	60.03719910816333	NA
mr_images/1_a.png	mr_images/1_a_z_270.png	left	ccw	90	NA	NA	NA	NA	0	61	61	7	390.8687505000271	NA	NA	NA	NA	391.421517400071	391.421517400071	right	0	2.3737607998773456	NA	NA	pme	001	2026-02-17_15h03.42.378	MR	2023.1.0	60.03719910816333	NA
mr_images/1_b.png	mr_images/1_b_z_45.png	left	cw	45	NA	NA	NA	NA	0	62	62	13	393.8226731999312	NA	NA	NA	NA	NA	394.3896302001085	right	0	1.641799199860543	NA	NA	pme	001	2026-02-17_15h03.42.378	MR	2023.1.0	60.03719910816333	NA
mr_images/3_a.png	mr_images/3_a_z_225.png	left	ccw	135	NA	NA	NA	NA	0	63	63	83	396.05564619996585	NA	NA	NA	NA	396.6179223000072	396.6179223000072	right	0	2.576139499899	NA	NA	pme	001	2026-02-17_15h03.42.378	MR	2023.1.0	60.03719910816333	NA
mr_images/12_a.png	mr_images/12_a_z_270.png	left	ccw	90	NA	NA	NA	NA	0	64	64	55	399.2177448000293	NA	NA	NA	NA	399.75095360004343	399.75095360004343	right	0	3.8752555998507887	NA	NA	pme	001	2026-02-17_15h03.42.378	MR	2023.1.0	60.03719910816333	NA
mr_images/11_a.png	mr_images/11_a_z_270.png	left	ccw	90	NA	NA	NA	NA	0	65	65	31	403.65049419994466	NA	NA	NA	NA	404.2169864999596	404.2169864999596	None	0	NA	NA	NA	pme	001	2026-02-17_15h03.42.378	MR	2023.1.0	60.03719910816333	NA
mr_images/6_a.png	mr_images/6_b_z_270.png	right	ccw	90	NA	NA	NA	NA	0	66	66	150	409.1663804000709	NA	NA	NA	NA	NA	409.69962460012175	left	0	2.677253399975598	NA	NA	pme	001	2026-02-17_15h03.42.378	MR	2023.1.0	60.03719910816333	NA
mr_images/11_b.png	mr_images/11_b_z_270.png	left	ccw	90	NA	NA	NA	NA	0	67	67	43	412.3991404999979	NA	NA	NA	NA	412.9528004000895	412.9528004000895	right	0	1.9512382997199893	NA	NA	pme	001	2026-02-17_15h03.42.378	MR	2023.1.0	60.03719910816333	NA
mr_images/9_b.png	mr_images/9_a_z_315.png	right	ccw	45	NA	NA	NA	NA	0	68	68	206	414.91968469996937	NA	NA	NA	NA	415.4818085001316	415.4818085001316	left	0	2.675452899886295	NA	NA	pme	001	2026-02-17_15h03.42.378	MR	2023.1.0	60.03719910816333	NA
mr_images/12_b.png	mr_images/12_b_z_270.png	left	ccw	90	NA	NA	NA	NA	0	69	69	67	418.18165630009025	NA	NA	NA	NA	418.74840250005946	418.74840250005946	right	0	2.493103499757126	NA	NA	pme	001	2026-02-17_15h03.42.378	MR	2023.1.0	60.03719910816333	NA
mr_images/1_a.png	mr_images/1_b_z_315.png	right	ccw	45	NA	NA	NA	NA	0	70	70	2	421.2647236001212	NA	NA	NA	NA	421.8337258999236	421.8337258999236	left	0	1.7339919998776168	NA	NA	pme	001	2026-02-17_15h03.42.378	MR	2023.1.0	60.03719910816333	NA
mr_images/7_a.png	mr_images/7_a_z_270.png	left	ccw	90	NA	NA	NA	NA	0	71	71	175	423.58516769995913	NA	NA	NA	NA	424.1477032999974	424.1477032999974	right	0	3.2842856000643224	NA	NA	pme	001	2026-02-17_15h03.42.378	MR	2023.1.0	60.03719910816333	NA
mr_images/7_a.png	mr_images/7_a_z_45.png	left	cw	45	NA	NA	NA	NA	0	72	72	169	427.4636756000109	NA	NA	NA	NA	427.99693679995835	427.99693679995835	right	0	3.498480699956417	NA	NA	pme	001	2026-02-17_15h03.42.378	MR	2023.1.0	60.03719910816333	NA
mr_images/5_b.png	mr_images/5_a_z_315.png	right	ccw	45	NA	NA	NA	NA	0	73	73	134	431.5132206999697	NA	NA	NA	NA	432.0632082000375	432.0632082000375	left	0	2.3818476998712867	NA	NA	pme	001	2026-02-17_15h03.42.378	MR	2023.1.0	60.03719910816333	NA
mr_images/11_b.png	mr_images/11_a_z_270.png	right	ccw	90	NA	NA	NA	NA	0	74	74	42	434.4626909000799	NA	NA	NA	NA	434.9959589999635	434.9959589999635	left	0	2.8864915997255594	NA	NA	pme	001	2026-02-17_15h03.42.378	MR	2023.1.0	60.03719910816333	NA
mr_images/5_a.png	mr_images/5_a_z_45.png	left	cw	45	NA	NA	NA	NA	0	75	75	121	437.9122379000764	NA	NA	NA	NA	438.4789738000836	438.4789738000836	right	0	2.491836400004104	NA	NA	pme	001	2026-02-17_15h03.42.378	MR	2023.1.0	60.03719910816333	NA
mr_images/7_b.png	mr_images/7_a_z_315.png	right	ccw	45	NA	NA	NA	NA	0	76	76	182	440.99522299994715	NA	NA	NA	NA	441.52843259996735	441.52843259996735	left	0	1.427490099798888	NA	NA	pme	001	2026-02-17_15h03.42.378	MR	2023.1.0	60.03719910816333	NA
mr_images/12_a.png	mr_images/12_a_z_315.png	left	ccw	45	NA	NA	NA	NA	0	77	77	51	442.97827360010706	NA	NA	NA	NA	443.5448541000951	443.5448541000951	right	0	2.2443256999831647	NA	NA	pme	001	2026-02-17_15h03.42.378	MR	2023.1.0	60.03719910816333	NA
mr_images/4_a.png	mr_images/4_b_z_90.png	right	cw	90	NA	NA	NA	NA	0	78	78	100	445.8112158000003	NA	NA	NA	NA	446.34444790007547	446.34444790007547	left	0	2.897972899954766	NA	NA	pme	001	2026-02-17_15h03.42.378	MR	2023.1.0	60.03719910816333	NA
mr_images/1_a.png	mr_images/1_b_z_45.png	right	cw	45	NA	NA	NA	NA	0	79	79	0	449.26071729999967	NA	NA	NA	NA	449.79394889995456	449.79394889995456	left	0	2.10868059983477	NA	NA	pme	001	2026-02-17_15h03.42.378	MR	2023.1.0	60.03719910816333	NA
mr_images/9_a.png	mr_images/9_a_z_45.png	left	cw	45	NA	NA	NA	NA	0	80	80	193	451.9269735000562	NA	NA	NA	NA	452.46030219993554	452.46030219993554	right	0	1.8105072998441756	NA	NA	pme	001	2026-02-17_15h03.42.378	MR	2023.1.0	60.03719910816333	NA
mr_images/1_b.png	mr_images/1_a_z_90.png	right	cw	90	NA	NA	NA	NA	0	81	81	16	454.2933076999616	NA	NA	NA	NA	454.8265981001314	454.8265981001314	left	0	3.147496699821204	NA	NA	pme	001	2026-02-17_15h03.42.378	MR	2023.1.0	60.03719910816333	NA
mr_images/4_a.png	mr_images/4_a_z_315.png	left	ccw	45	NA	NA	NA	NA	0	82	82	99	457.9927807999775	NA	NA	NA	NA	458.5429042000323	458.5429042000323	right	0	1.3153103997465223	NA	NA	pme	001	2026-02-17_15h03.42.378	MR	2023.1.0	60.03719910816333	NA
mr_images/5_a.png	mr_images/5_a_z_225.png	left	ccw	135	NA	NA	NA	NA	0	83	83	131	459.875847700052	NA	NA	NA	NA	460.4295745999552	460.4295745999552	right	0	3.0492437998764217	NA	NA	pme	001	2026-02-17_15h03.42.378	MR	2023.1.0	60.03719910816333	NA
mr_images/7_b.png	mr_images/7_b_z_225.png	left	ccw	135	NA	NA	NA	NA	0	84	84	191	463.49627140001394	NA	NA	NA	NA	464.0586584000848	464.0586584000848	right	0	2.7744048999156803	NA	NA	pme	001	2026-02-17_15h03.42.378	MR	2023.1.0	60.03719910816333	NA
mr_images/4_a.png	mr_images/4_a_z_45.png	left	cw	45	NA	NA	NA	NA	0	85	85	97	466.8582822000608	NA	NA	NA	NA	467.4248480000533	467.4248480000533	right	0	2.4801558998879045	NA	NA	pme	001	2026-02-17_15h03.42.378	MR	2023.1.0	60.03719910816333	NA
mr_images/7_a.png	mr_images/7_b_z_135.png	right	cw	135	NA	NA	NA	NA	0	86	86	176	469.92451849998906	NA	NA	NA	NA	470.47590450011194	470.47590450011194	left	0	2.6608274998143315	NA	NA	pme	001	2026-02-17_15h03.42.378	MR	2023.1.0	60.03719910816333	NA
mr_images/11_a.png	mr_images/11_a_z_90.png	left	cw	90	NA	NA	NA	NA	0	87	87	29	473.157353800023	NA	NA	NA	NA	473.6907609000336	473.6907609000336	right	0	2.685824600048363	NA	NA	pme	001	2026-02-17_15h03.42.378	MR	2023.1.0	60.03719910816333	NA
mr_images/9_a.png	mr_images/9_b_z_135.png	right	cw	135	NA	NA	NA	NA	0	88	88	200	476.40703070000745	NA	NA	NA	NA	476.940380099928	476.940380099928	left	0	2.657186099793762	NA	NA	pme	001	2026-02-17_15h03.42.378	MR	2023.1.0	60.03719910816333	NA
mr_images/5_b.png	mr_images/5_b_z_225.png	left	ccw	135	NA	NA	NA	NA	0	89	89	143	479.62316790013574	NA	NA	NA	NA	480.17457649996504	480.17457649996504	right	0	1.9926257997285577	NA	NA	pme	001	2026-02-17_15h03.42.378	MR	2023.1.0	60.03719910816333	NA
mr_images/12_a.png	mr_images/12_b_z_270.png	right	ccw	90	NA	NA	NA	NA	0	90	90	54	482.1894930999261	NA	NA	NA	NA	482.72276629996486	482.72276629996486	left	0	2.699438599869609	NA	NA	pme	001	2026-02-17_15h03.42.378	MR	2023.1.0	60.03719910816333	NA
mr_images/7_b.png	mr_images/7_b_z_90.png	left	cw	90	NA	NA	NA	NA	0	91	91	185	485.43930940004066	NA	NA	NA	NA	485.9896275000646	485.9896275000646	right	0	1.9497859999537468	NA	NA	pme	001	2026-02-17_15h03.42.378	MR	2023.1.0	60.03719910816333	NA
mr_images/7_a.png	mr_images/7_b_z_270.png	right	ccw	90	NA	NA	NA	NA	0	92	92	174	487.97207679995336	NA	NA	NA	NA	488.5255732999649	488.5255732999649	left	0	1.7570283997338263	NA	NA	pme	001	2026-02-17_15h03.42.378	MR	2023.1.0	60.03719910816333	NA
mr_images/6_b.png	mr_images/6_b_z_135.png	left	cw	135	NA	NA	NA	NA	0	93	93	165	490.3092195000499	NA	NA	NA	NA	490.8717730001081	490.8717730001081	right	0	2.430195399792865	NA	NA	pme	001	2026-02-17_15h03.42.378	MR	2023.1.0	60.03719910816333	NA
mr_images/4_b.png	mr_images/4_a_z_135.png	right	cw	135	NA	NA	NA	NA	0	94	94	116	493.32128520007245	NA	NA	NA	NA	493.8545393999666	493.8545393999666	left	0	2.2705630999989808	NA	NA	pme	001	2026-02-17_15h03.42.378	MR	2023.1.0	60.03719910816333	NA
mr_images/1_a.png	mr_images/1_a_z_45.png	left	cw	45	NA	NA	NA	NA	0	95	95	1	496.1541595000308	NA	NA	NA	NA	496.68751280009747	496.68751280009747	right	0	1.7959912999067456	NA	NA	pme	001	2026-02-17_15h03.42.378	MR	2023.1.0	60.03719910816333	NA
mr_images/7_a.png	mr_images/7_b_z_225.png	right	ccw	135	NA	NA	NA	NA	0	96	96	178	498.5038934000768	NA	NA	NA	NA	499.0371205001138	499.0371205001138	left	0	2.7072781997267157	NA	NA	pme	001	2026-02-17_15h03.42.378	MR	2023.1.0	60.03719910816333	NA
mr_images/6_a.png	mr_images/6_b_z_135.png	right	cw	135	NA	NA	NA	NA	0	97	97	152	501.7702296001371	NA	NA	NA	NA	502.3033884000033	502.3033884000033	left	0	2.154860300011933	NA	NA	pme	001	2026-02-17_15h03.42.378	MR	2023.1.0	60.03719910816333	NA
mr_images/1_b.png	mr_images/1_b_z_135.png	left	cw	135	NA	NA	NA	NA	0	98	98	21	504.4864501000848	NA	NA	NA	NA	505.04021989996545	505.04021989996545	right	0	2.205325099872425	NA	NA	pme	001	2026-02-17_15h03.42.378	MR	2023.1.0	60.03719910816333	NA
mr_images/3_a.png	mr_images/3_a_z_90.png	left	cw	90	NA	NA	NA	NA	0	99	99	77	507.2735808000434	NA	NA	NA	NA	507.7891446999274	507.7891446999274	right	0	1.7159233998972925	NA	NA	pme	001	2026-02-17_15h03.42.378	MR	2023.1.0	60.03719910816333	NA
mr_images/12_b.png	mr_images/12_b_z_225.png	left	ccw	135	NA	NA	NA	NA	0	100	100	71	509.523394000018	NA	NA	NA	NA	510.05216560000554	510.05216560000554	right	0	2.3881881998386234	NA	NA	pme	001	2026-02-17_15h03.42.378	MR	2023.1.0	60.03719910816333	NA
mr_images/9_a.png	mr_images/9_b_z_90.png	right	cw	90	NA	NA	NA	NA	0	101	101	196	512.4686229000799	NA	NA	NA	NA	513.022816099925	513.022816099925	left	0	2.118155099917203	NA	NA	pme	001	2026-02-17_15h03.42.378	MR	2023.1.0	60.03719910816333	NA
mr_images/3_a.png	mr_images/3_b_z_270.png	right	ccw	90	NA	NA	NA	NA	0	102	102	78	515.1725000999868	NA	NA	NA	NA	515.7014149001334	515.7014149001334	left	0	1.4604850998148322	NA	NA	pme	001	2026-02-17_15h03.42.378	MR	2023.1.0	60.03719910816333	NA
mr_images/6_a.png	mr_images/6_b_z_45.png	right	cw	45	NA	NA	NA	NA	0	103	103	144	517.1846837999765	NA	NA	NA	NA	517.7051826999523	517.7051826999523	left	0	1.7879099000710994	NA	NA	pme	001	2026-02-17_15h03.42.378	MR	2023.1.0	60.03719910816333	NA
mr_images/12_b.png	mr_images/12_a_z_45.png	right	cw	45	NA	NA	NA	NA	0	104	104	60	519.5220087000635	NA	NA	NA	NA	520.0842663999647	520.0842663999647	left	0	3.541578999720514	NA	NA	pme	001	2026-02-17_15h03.42.378	MR	2023.1.0	60.03719910816333	NA
mr_images/3_b.png	mr_images/3_b_z_315.png	left	ccw	45	NA	NA	NA	NA	0	105	105	87	523.6503916000947	NA	NA	NA	NA	524.2169886999764	524.2169886999764	right	0	1.5854302998632193	NA	NA	pme	001	2026-02-17_15h03.42.378	MR	2023.1.0	60.03719910816333	NA
mr_images/4_b.png	mr_images/4_b_z_135.png	left	cw	135	NA	NA	NA	NA	0	106	106	117	525.8333908000495	NA	NA	NA	NA	526.3667256999761	526.3667256999761	right	0	1.3986130999401212	NA	NA	pme	001	2026-02-17_15h03.42.378	MR	2023.1.0	60.03719910816333	NA
mr_images/6_b.png	mr_images/6_b_z_315.png	left	ccw	45	NA	NA	NA	NA	0	107	107	159	527.7831814000383	NA	NA	NA	NA	528.3164395999629	528.3164395999629	None	0	NA	NA	NA	pme	001	2026-02-17_15h03.42.378	MR	2023.1.0	60.03719910816333	NA
mr_images/4_a.png	mr_images/4_b_z_270.png	right	ccw	90	NA	NA	NA	NA	0	108	108	102	533.2993384001311	NA	NA	NA	NA	NA	533.8324265999254	left	0	1.7670140000991523	NA	NA	pme	001	2026-02-17_15h03.42.378	MR	2023.1.0	60.03719910816333	NA
mr_images/9_a.png	mr_images/9_a_z_270.png	left	ccw	90	NA	NA	NA	NA	0	109	109	199	535.6320386999287	NA	NA	NA	NA	536.1986736999825	536.1986736999825	right	0	2.2509752998594195	NA	NA	pme	001	2026-02-17_15h03.42.378	MR	2023.1.0	60.03719910816333	NA
mr_images/12_a.png	mr_images/12_b_z_90.png	right	cw	90	NA	NA	NA	NA	0	110	110	52	538.4816443999298	NA	NA	NA	NA	539.0372057000641	539.0372057000641	right	1	3.2234077998436987	NA	NA	pme	001	2026-02-17_15h03.42.378	MR	2023.1.0	60.03719910816333	NA
mr_images/11_b.png	mr_images/11_a_z_315.png	right	ccw	45	NA	NA	NA	NA	0	111	111	38	542.2853886999656	NA	NA	NA	NA	542.8477314000484	542.8477314000484	left	0	2.2470902998466045	NA	NA	pme	001	2026-02-17_15h03.42.378	MR	2023.1.0	60.03719910816333	NA
mr_images/6_b.png	mr_images/6_a_z_270.png	right	ccw	90	NA	NA	NA	NA	0	112	112	162	545.1140898999292	NA	NA	NA	NA	545.6473083000164	545.6473083000164	left	0	2.2317963000386953	NA	NA	pme	001	2026-02-17_15h03.42.378	MR	2023.1.0	60.03719910816333	NA
mr_images/7_a.png	mr_images/7_b_z_45.png	right	cw	45	NA	NA	NA	NA	0	113	113	168	547.8968531000428	NA	NA	NA	NA	548.4497432000935	548.4497432000935	left	0	1.929205499822274	NA	NA	pme	001	2026-02-17_15h03.42.378	MR	2023.1.0	60.03719910816333	NA
mr_images/3_b.png	mr_images/3_a_z_270.png	right	ccw	90	NA	NA	NA	NA	0	114	114	90	550.4009755000006	NA	NA	NA	NA	550.9301491000224	550.9301491000224	left	0	1.7449709998909384	NA	NA	pme	001	2026-02-17_15h03.42.378	MR	2023.1.0	60.03719910816333	NA
mr_images/6_a.png	mr_images/6_a_z_135.png	left	cw	135	NA	NA	NA	NA	0	115	115	153	552.6963015000802	NA	NA	NA	NA	553.2497748001479	553.2497748001479	right	0	2.6163564997259527	NA	NA	pme	001	2026-02-17_15h03.42.378	MR	2023.1.0	60.03719910816333	NA
mr_images/11_a.png	mr_images/11_b_z_90.png	right	cw	90	NA	NA	NA	NA	0	116	116	28	555.8835156999994	NA	NA	NA	NA	556.4459158000536	556.4459158000536	right	1	3.489156999858096	NA	NA	pme	001	2026-02-17_15h03.42.378	MR	2023.1.0	60.03719910816333	NA
mr_images/12_b.png	mr_images/12_b_z_90.png	left	cw	90	NA	NA	NA	NA	0	117	117	65	559.9621306001209	NA	NA	NA	NA	560.4953414001502	560.4953414001502	right	0	2.0861607999540865	NA	NA	pme	001	2026-02-17_15h03.42.378	MR	2023.1.0	60.03719910816333	NA
mr_images/5_a.png	mr_images/5_a_z_270.png	left	ccw	90	NA	NA	NA	NA	0	118	118	127	562.611651299987	NA	NA	NA	NA	563.1449066000059	563.1449066000059	right	0	3.4366194996982813	NA	NA	pme	001	2026-02-17_15h03.42.378	MR	2023.1.0	60.03719910816333	NA
mr_images/1_a.png	mr_images/1_b_z_270.png	right	ccw	90	NA	NA	NA	NA	0	119	119	6	566.6111570000648	NA	NA	NA	NA	567.1777292999905	567.1777292999905	left	0	1.6783100999891758	NA	NA	pme	001	2026-02-17_15h03.42.378	MR	2023.1.0	60.03719910816333	NA
mr_images/3_b.png	mr_images/3_a_z_135.png	right	cw	135	NA	NA	NA	NA	0	120	120	92	568.8776529000606	NA	NA	NA	NA	569.4295860999264	569.4295860999264	right	1	1.9816544998902828	NA	NA	pme	001	2026-02-17_15h03.42.378	MR	2023.1.0	60.03719910816333	NA
mr_images/7_b.png	mr_images/7_a_z_90.png	right	cw	90	NA	NA	NA	NA	0	121	121	184	571.4313777000643	NA	NA	NA	NA	571.9936890001409	571.9936890001409	right	1	2.092041799798608	NA	NA	pme	001	2026-02-17_15h03.42.378	MR	2023.1.0	60.03719910816333	NA
mr_images/11_b.png	mr_images/11_b_z_45.png	left	cw	45	NA	NA	NA	NA	0	122	122	37	574.1100056001451	NA	NA	NA	NA	574.6767605000641	574.6767605000641	right	0	4.600329699926078	NA	NA	pme	001	2026-02-17_15h03.42.378	MR	2023.1.0	60.03719910816333	NA
mr_images/5_b.png	mr_images/5_b_z_315.png	left	ccw	45	NA	NA	NA	NA	0	123	123	135	579.3094033000525	NA	NA	NA	NA	579.8426687000319	579.8426687000319	right	0	3.639100899919867	NA	NA	pme	001	2026-02-17_15h03.42.378	MR	2023.1.0	60.03719910816333	NA
mr_images/5_a.png	mr_images/5_b_z_90.png	right	cw	90	NA	NA	NA	NA	0	124	124	124	583.5087010001298	NA	NA	NA	NA	584.042109400034	584.042109400034	left	0	1.9084850000217557	NA	NA	pme	001	2026-02-17_15h03.42.378	MR	2023.1.0	60.03719910816333	NA
mr_images/11_a.png	mr_images/11_a_z_225.png	left	ccw	135	NA	NA	NA	NA	0	125	125	35	585.9752247999422	NA	NA	NA	NA	586.54176250007	586.54176250007	right	0	2.1677894999738783	NA	NA	pme	001	2026-02-17_15h03.42.378	MR	2023.1.0	60.03719910816333	NA
mr_images/4_a.png	mr_images/4_a_z_90.png	left	cw	90	NA	NA	NA	NA	0	126	126	101	588.7412992001045	NA	NA	NA	NA	589.2746834000573	589.2746834000573	right	0	1.3769955998286605	NA	NA	pme	001	2026-02-17_15h03.42.378	MR	2023.1.0	60.03719910816333	NA
mr_images/4_b.png	mr_images/4_a_z_45.png	right	cw	45	NA	NA	NA	NA	0	127	127	108	590.674624199979	NA	NA	NA	NA	591.2076985000167	591.2076985000167	left	0	1.7032468998804688	NA	NA	pme	001	2026-02-17_15h03.42.378	MR	2023.1.0	60.03719910816333	NA
mr_images/12_a.png	mr_images/12_a_z_225.png	left	ccw	135	NA	NA	NA	NA	0	128	128	59	592.943386200117	NA	NA	NA	NA	NA	593.4739331000019	right	0	2.007707999786362	NA	NA	pme	001	2026-02-17_15h03.42.378	MR	2023.1.0	60.03719910816333	NA
mr_images/3_a.png	mr_images/3_a_z_315.png	left	ccw	45	NA	NA	NA	NA	0	129	129	75	595.5071209000889	NA	NA	NA	NA	596.0404264000244	596.0404264000244	right	0	1.6355542996898291	NA	NA	pme	001	2026-02-17_15h03.42.378	MR	2023.1.0	60.03719910816333	NA
mr_images/9_a.png	mr_images/9_a_z_135.png	left	cw	135	NA	NA	NA	NA	0	130	130	201	597.7068098001182	NA	NA	NA	NA	598.2400156001095	598.2400156001095	right	0	2.454409600002691	NA	NA	pme	001	2026-02-17_15h03.42.378	MR	2023.1.0	60.03719910816333	NA
mr_images/1_a.png	mr_images/1_b_z_90.png	right	cw	90	NA	NA	NA	NA	0	131	131	4	600.7229790000711	NA	NA	NA	NA	601.2564433000516	601.2564433000516	left	0	2.0624361999798566	NA	NA	pme	001	2026-02-17_15h03.42.378	MR	2023.1.0	60.03719910816333	NA
mr_images/5_b.png	mr_images/5_a_z_45.png	right	cw	45	NA	NA	NA	NA	0	132	132	132	603.3393556999508	NA	NA	NA	NA	603.8726175001357	603.8726175001357	left	0	2.7012187999207526	NA	NA	pme	001	2026-02-17_15h03.42.378	MR	2023.1.0	60.03719910816333	NA
mr_images/1_b.png	mr_images/1_a_z_270.png	right	ccw	90	NA	NA	NA	NA	0	133	133	18	606.6054891999811	NA	NA	NA	NA	607.1388209001161	607.1388209001161	left	0	1.237076799850911	NA	NA	pme	001	2026-02-17_15h03.42.378	MR	2023.1.0	60.03719910816333	NA
mr_images/6_a.png	mr_images/6_b_z_90.png	right	cw	90	NA	NA	NA	NA	0	134	134	148	608.4053639001213	NA	NA	NA	NA	608.9719774001278	608.9719774001278	left	0	2.872244899859652	NA	NA	pme	001	2026-02-17_15h03.42.378	MR	2023.1.0	60.03719910816333	NA
mr_images/5_a.png	mr_images/5_a_z_90.png	left	cw	90	NA	NA	NA	NA	0	135	135	125	611.8714791999664	NA	NA	NA	NA	612.4048671999481	612.4048671999481	right	0	2.530218199826777	NA	NA	pme	001	2026-02-17_15h03.42.378	MR	2023.1.0	60.03719910816333	NA
mr_images/3_b.png	mr_images/3_b_z_45.png	left	cw	45	NA	NA	NA	NA	0	136	136	85	614.9543343000114	NA	NA	NA	NA	615.4876888000872	615.4876888000872	right	0	2.3564127997960895	NA	NA	pme	001	2026-02-17_15h03.42.378	MR	2023.1.0	60.03719910816333	NA
mr_images/7_a.png	mr_images/7_b_z_90.png	right	cw	90	NA	NA	NA	NA	0	137	137	172	617.8706487999298	NA	NA	NA	NA	618.403669100022	618.403669100022	left	0	2.7891802999656647	NA	NA	pme	001	2026-02-17_15h03.42.378	MR	2023.1.0	60.03719910816333	NA
mr_images/1_b.png	mr_images/1_b_z_270.png	left	ccw	90	NA	NA	NA	NA	0	138	138	19	621.2203431001399	NA	NA	NA	NA	621.7535864000674	621.7535864000674	right	0	4.069699699990451	NA	NA	pme	001	2026-02-17_15h03.42.378	MR	2023.1.0	60.03719910816333	NA
mr_images/3_b.png	mr_images/3_a_z_315.png	right	ccw	45	NA	NA	NA	NA	0	139	139	86	625.8528960000258	NA	NA	NA	NA	626.3861754999962	626.3861754999962	left	0	1.38927589985542	NA	NA	pme	001	2026-02-17_15h03.42.378	MR	2023.1.0	60.03719910816333	NA
mr_images/12_b.png	mr_images/12_a_z_90.png	right	cw	90	NA	NA	NA	NA	0	140	140	64	627.8026705000084	NA	NA	NA	NA	628.323595300084	628.323595300084	left	0	2.154036199906841	NA	NA	pme	001	2026-02-17_15h03.42.378	MR	2023.1.0	60.03719910816333	NA
mr_images/5_b.png	mr_images/5_b_z_45.png	left	cw	45	NA	NA	NA	NA	0	141	141	133	630.5064996001311	NA	NA	NA	NA	631.0688233999535	631.0688233999535	right	0	1.550116099882871	NA	NA	pme	001	2026-02-17_15h03.42.378	MR	2023.1.0	60.03719910816333	NA
mr_images/12_b.png	mr_images/12_b_z_315.png	left	ccw	45	NA	NA	NA	NA	0	142	142	63	632.6352677000687	NA	NA	NA	NA	633.1684969000053	633.1684969000053	right	0	2.5707403998821974	NA	NA	pme	001	2026-02-17_15h03.42.378	MR	2023.1.0	60.03719910816333	NA
mr_images/6_a.png	mr_images/6_a_z_90.png	left	cw	90	NA	NA	NA	NA	0	143	143	149	635.7682276000269	NA	NA	NA	NA	636.3013842999935	636.3013842999935	right	0	3.1270381996873766	NA	NA	pme	001	2026-02-17_15h03.42.378	MR	2023.1.0	60.03719910816333	NA
mr_images/5_a.png	mr_images/5_a_z_135.png	left	cw	135	NA	NA	NA	NA	0	144	144	129	639.4510540000629	NA	NA	NA	NA	640.017568100011	640.017568100011	right	0	4.873540899949148	NA	NA	pme	001	2026-02-17_15h03.42.378	MR	2023.1.0	60.03719910816333	NA
mr_images/1_a.png	mr_images/1_b_z_225.png	right	ccw	135	NA	NA	NA	NA	0	145	145	10	644.9171136999503	NA	NA	NA	NA	645.483487999998	645.483487999998	left	0	2.3013486000709236	NA	NA	pme	001	2026-02-17_15h03.42.378	MR	2023.1.0	60.03719910816333	NA
mr_images/11_a.png	mr_images/11_b_z_270.png	right	ccw	90	NA	NA	NA	NA	0	146	146	30	647.8165720000397	NA	NA	NA	NA	648.3497337000445	648.3497337000445	left	0	1.9034470999613404	NA	NA	pme	001	2026-02-17_15h03.42.378	MR	2023.1.0	60.03719910816333	NA
mr_images/9_b.png	mr_images/9_b_z_90.png	left	cw	90	NA	NA	NA	NA	0	147	147	209	650.2828015000559	NA	NA	NA	NA	650.8160594000947	650.8160594000947	right	0	1.578560199821368	NA	NA	pme	001	2026-02-17_15h03.42.378	MR	2023.1.0	60.03719910816333	NA
mr_images/5_a.png	mr_images/5_a_z_315.png	left	ccw	45	NA	NA	NA	NA	0	148	148	123	652.4159005000256	NA	NA	NA	NA	652.9492643000558	652.9492643000558	right	0	1.8144312999211252	NA	NA	pme	001	2026-02-17_15h03.42.378	MR	2023.1.0	60.03719910816333	NA
mr_images/7_b.png	mr_images/7_a_z_270.png	right	ccw	90	NA	NA	NA	NA	0	149	149	186	654.7822040000465	NA	NA	NA	NA	655.3154871000443	655.3154871000443	left	0	1.3909692999441177	NA	NA	pme	001	2026-02-17_15h03.42.378	MR	2023.1.0	60.03719910816333	NA
mr_images/4_a.png	mr_images/4_b_z_45.png	right	cw	45	NA	NA	NA	NA	0	150	150	96	656.7319565000944	NA	NA	NA	NA	657.265297499951	657.265297499951	left	0	1.2902776999399066	NA	NA	pme	001	2026-02-17_15h03.42.378	MR	2023.1.0	60.03719910816333	NA
mr_images/7_b.png	mr_images/7_b_z_270.png	left	ccw	90	NA	NA	NA	NA	0	151	151	187	658.5816921999212	NA	NA	NA	NA	659.1150166001171	659.1150166001171	right	0	4.748806199757382	NA	NA	pme	001	2026-02-17_15h03.42.378	MR	2023.1.0	60.03719910816333	NA
mr_images/3_b.png	mr_images/3_a_z_45.png	right	cw	45	NA	NA	NA	NA	0	152	152	84	663.8808951999526	NA	NA	NA	NA	664.4475261000916	664.4475261000916	left	0	1.358430799795315	NA	NA	pme	001	2026-02-17_15h03.42.378	MR	2023.1.0	60.03719910816333	NA
mr_images/12_a.png	mr_images/12_a_z_45.png	left	cw	45	NA	NA	NA	NA	0	153	153	49	665.8315539001487	NA	NA	NA	NA	666.3638708000071	666.3638708000071	right	0	1.8653398000169543	NA	NA	pme	001	2026-02-17_15h03.42.378	MR	2023.1.0	60.03719910816333	NA
mr_images/9_b.png	mr_images/9_b_z_315.png	left	ccw	45	NA	NA	NA	NA	0	154	154	207	668.2469657999463	NA	NA	NA	NA	668.8136793000158	668.8136793000158	right	0	2.6547945998609066	NA	NA	pme	001	2026-02-17_15h03.42.378	MR	2023.1.0	60.03719910816333	NA
mr_images/11_b.png	mr_images/11_a_z_135.png	right	cw	135	NA	NA	NA	NA	0	155	155	44	671.496523699956	NA	NA	NA	NA	672.0631945999339	672.0631945999339	right	1	2.13453649985604	NA	NA	pme	001	2026-02-17_15h03.42.378	MR	2023.1.0	60.03719910816333	NA
mr_images/3_a.png	mr_images/3_a_z_135.png	left	cw	135	NA	NA	NA	NA	0	156	156	81	674.229542999994	NA	NA	NA	NA	674.7627282000612	674.7627282000612	right	0	1.3629433999303728	NA	NA	pme	001	2026-02-17_15h03.42.378	MR	2023.1.0	60.03719910816333	NA
mr_images/5_b.png	mr_images/5_a_z_135.png	right	cw	135	NA	NA	NA	NA	0	157	157	140	676.145900500007	NA	NA	NA	NA	676.6792266000994	676.6792266000994	left	0	2.850986899808049	NA	NA	pme	001	2026-02-17_15h03.42.378	MR	2023.1.0	60.03719910816333	NA
mr_images/7_a.png	mr_images/7_a_z_90.png	left	cw	90	NA	NA	NA	NA	0	158	158	173	679.562213400146	NA	NA	NA	NA	680.0953675000928	680.0953675000928	right	0	1.5090297998394815	NA	NA	pme	001	2026-02-17_15h03.42.378	MR	2023.1.0	60.03719910816333	NA
mr_images/9_a.png	mr_images/9_b_z_315.png	right	ccw	45	NA	NA	NA	NA	0	159	159	194	681.6284732001368	NA	NA	NA	NA	682.1618262999691	682.1618262999691	left	0	1.3967215998563915	NA	NA	pme	001	2026-02-17_15h03.42.378	MR	2023.1.0	60.03719910816333	NA
mr_images/4_b.png	mr_images/4_a_z_225.png	right	ccw	135	NA	NA	NA	NA	0	160	160	118	683.5781425000168	NA	NA	NA	NA	684.1449164000805	684.1449164000805	left	0	1.476750399917364	NA	NA	pme	001	2026-02-17_15h03.42.378	MR	2023.1.0	60.03719910816333	NA
mr_images/7_a.png	mr_images/7_a_z_225.png	left	ccw	135	NA	NA	NA	NA	0	161	161	179	685.6445888001472	NA	NA	NA	NA	686.177769199945	686.177769199945	right	0	1.917473099892959	NA	NA	pme	001	2026-02-17_15h03.42.378	MR	2023.1.0	60.03719910816333	NA
mr_images/12_b.png	mr_images/12_b_z_135.png	left	cw	135	NA	NA	NA	NA	0	162	162	69	688.1275667001028	NA	NA	NA	NA	688.6608688000124	688.6608688000124	right	0	1.8004077998921275	NA	NA	pme	001	2026-02-17_15h03.42.378	MR	2023.1.0	60.03719910816333	NA
mr_images/7_b.png	mr_images/7_b_z_135.png	left	cw	135	NA	NA	NA	NA	0	163	163	189	690.4939822000451	NA	NA	NA	NA	691.027232100023	691.027232100023	right	0	1.5260709000285717	NA	NA	pme	001	2026-02-17_15h03.42.378	MR	2023.1.0	60.03719910816333	NA
mr_images/6_b.png	mr_images/6_b_z_90.png	left	cw	90	NA	NA	NA	NA	0	164	164	161	692.5769990999252	NA	NA	NA	NA	693.1102267000824	693.1102267000824	right	0	2.5893506999127567	NA	NA	pme	001	2026-02-17_15h03.42.378	MR	2023.1.0	60.03719910816333	NA
mr_images/12_b.png	mr_images/12_a_z_135.png	right	cw	135	NA	NA	NA	NA	0	165	165	68	695.7265731000807	NA	NA	NA	NA	696.2597491000779	696.2597491000779	left	0	4.263340599834919	NA	NA	pme	001	2026-02-17_15h03.42.378	MR	2023.1.0	60.03719910816333	NA
mr_images/9_b.png	mr_images/9_a_z_225.png	right	ccw	135	NA	NA	NA	NA	0	166	166	214	700.5425040000118	NA	NA	NA	NA	701.0757291000336	701.0757291000336	left	0	2.8871572997886688	NA	NA	pme	001	2026-02-17_15h03.42.378	MR	2023.1.0	60.03719910816333	NA
mr_images/6_b.png	mr_images/6_a_z_315.png	right	ccw	45	NA	NA	NA	NA	0	167	167	158	703.9920193001162	NA	NA	NA	NA	704.5442143001128	704.5442143001128	left	0	1.2988262998405844	NA	NA	pme	001	2026-02-17_15h03.42.378	MR	2023.1.0	60.03719910816333	NA
mr_images/5_a.png	mr_images/5_b_z_135.png	right	cw	135	NA	NA	NA	NA	0	168	168	128	705.8626352001447	NA	NA	NA	NA	706.4250879001338	706.4250879001338	None	0	NA	NA	NA	pme	001	2026-02-17_15h03.42.378	MR	2023.1.0	60.03719910816333	NA
mr_images/3_b.png	mr_images/3_b_z_225.png	left	ccw	135	NA	NA	NA	NA	0	169	169	95	711.3744399000425	NA	NA	NA	NA	NA	711.9075690000318	right	0	3.569595899665728	NA	NA	pme	001	2026-02-17_15h03.42.378	MR	2023.1.0	60.03719910816333	NA
mr_images/11_b.png	mr_images/11_a_z_225.png	right	ccw	135	NA	NA	NA	NA	0	170	170	46	715.5073011999484	NA	NA	NA	NA	716.0404425000306	716.0404425000306	left	0	1.45593179971911	NA	NA	pme	001	2026-02-17_15h03.42.378	MR	2023.1.0	60.03719910816333	NA
mr_images/9_a.png	mr_images/9_b_z_45.png	right	cw	45	NA	NA	NA	NA	0	171	171	192	717.5235039000399	NA	NA	NA	NA	718.0900990001392	718.0900990001392	left	0	4.1559626997914165	NA	NA	pme	001	2026-02-17_15h03.42.378	MR	2023.1.0	60.03719910816333	NA
mr_images/7_b.png	mr_images/7_b_z_45.png	left	cw	45	NA	NA	NA	NA	0	172	172	181	722.2729929999914	NA	NA	NA	NA	722.8060069000348	722.8060069000348	right	0	1.54726090002805	NA	NA	pme	001	2026-02-17_15h03.42.378	MR	2023.1.0	60.03719910816333	NA
mr_images/3_a.png	mr_images/3_a_z_45.png	left	cw	45	NA	NA	NA	NA	0	173	173	73	724.3724513000343	NA	NA	NA	NA	724.9059306001291	724.9059306001291	right	0	1.5225420999340713	NA	NA	pme	001	2026-02-17_15h03.42.378	MR	2023.1.0	60.03719910816333	NA
mr_images/5_b.png	mr_images/5_b_z_135.png	left	cw	135	NA	NA	NA	NA	0	174	174	141	726.4555488999467	NA	NA	NA	NA	726.9888309000526	726.9888309000526	right	0	2.765341999940574	NA	NA	pme	001	2026-02-17_15h03.42.378	MR	2023.1.0	60.03719910816333	NA
mr_images/3_a.png	mr_images/3_b_z_90.png	right	cw	90	NA	NA	NA	NA	0	175	175	76	729.7717085999902	NA	NA	NA	NA	730.3384563000873	730.3384563000873	left	0	2.7235543997958302	NA	NA	pme	001	2026-02-17_15h03.42.378	MR	2023.1.0	60.03719910816333	NA
mr_images/1_a.png	mr_images/1_a_z_225.png	left	ccw	135	NA	NA	NA	NA	0	176	176	11	733.0880233999342	NA	NA	NA	NA	733.6212486000732	733.6212486000732	right	0	1.92181249987334	NA	NA	pme	001	2026-02-17_15h03.42.378	MR	2023.1.0	60.03719910816333	NA
mr_images/11_b.png	mr_images/11_b_z_225.png	left	ccw	135	NA	NA	NA	NA	0	177	177	47	735.570937700104	NA	NA	NA	NA	736.1054295001086	736.1054295001086	right	0	2.1448609000071883	NA	NA	pme	001	2026-02-17_15h03.42.378	MR	2023.1.0	60.03719910816333	NA
mr_images/4_a.png	mr_images/4_a_z_225.png	left	ccw	135	NA	NA	NA	NA	0	178	178	107	738.2707354000304	NA	NA	NA	NA	738.8038270999677	738.8038270999677	right	0	2.4948699998203665	NA	NA	pme	001	2026-02-17_15h03.42.378	MR	2023.1.0	60.03719910816333	NA
mr_images/6_a.png	mr_images/6_a_z_45.png	left	cw	45	NA	NA	NA	NA	0	179	179	145	741.3201622001361	NA	NA	NA	NA	741.8534562001005	741.8534562001005	right	0	2.401534699834883	NA	NA	pme	001	2026-02-17_15h03.42.378	MR	2023.1.0	60.03719910816333	NA
mr_images/11_b.png	mr_images/11_b_z_315.png	left	ccw	45	NA	NA	NA	NA	0	180	180	39	744.2863710999954	NA	NA	NA	NA	744.8534027000424	744.8534027000424	right	0	2.835601900005713	NA	NA	pme	001	2026-02-17_15h03.42.378	MR	2023.1.0	60.03719910816333	NA
mr_images/9_a.png	mr_images/9_a_z_90.png	left	cw	90	NA	NA	NA	NA	0	181	181	197	747.7195022001397	NA	NA	NA	NA	748.2525631000753	748.2525631000753	right	0	1.649554899893701	NA	NA	pme	001	2026-02-17_15h03.42.378	MR	2023.1.0	60.03719910816333	NA
mr_images/1_a.png	mr_images/1_b_z_135.png	right	cw	135	NA	NA	NA	NA	0	182	182	8	749.9190227000508	NA	NA	NA	NA	750.4522728000302	750.4522728000302	left	0	1.4822835000231862	NA	NA	pme	001	2026-02-17_15h03.42.378	MR	2023.1.0	60.03719910816333	NA
mr_images/6_a.png	mr_images/6_b_z_225.png	right	ccw	135	NA	NA	NA	NA	0	183	183	154	751.9521731000859	NA	NA	NA	NA	752.4852817999199	752.4852817999199	left	0	1.9084512998815624	NA	NA	pme	001	2026-02-17_15h03.42.378	MR	2023.1.0	60.03719910816333	NA
mr_images/3_a.png	mr_images/3_b_z_135.png	right	cw	135	NA	NA	NA	NA	0	184	184	80	754.4184157999698	NA	NA	NA	NA	754.9850302000996	754.9850302000996	left	0	1.6152141999918967	NA	NA	pme	001	2026-02-17_15h03.42.378	MR	2023.1.0	60.03719910816333	NA
mr_images/6_a.png	mr_images/6_a_z_315.png	left	ccw	45	NA	NA	NA	NA	0	185	185	147	756.6180319001433	NA	NA	NA	NA	757.1514123999514	757.1514123999514	left	1	3.7978641998488456	NA	NA	pme	001	2026-02-17_15h03.42.378	MR	2023.1.0	60.03719910816333	NA
mr_images/11_a.png	mr_images/11_b_z_45.png	right	cw	45	NA	NA	NA	NA	0	186	186	24	760.9675316000357	NA	NA	NA	NA	761.5006922001485	761.5006922001485	left	0	4.5969292998779565	NA	NA	pme	001	2026-02-17_15h03.42.378	MR	2023.1.0	60.03719910816333	NA
mr_images/7_b.png	mr_images/7_a_z_135.png	right	cw	135	NA	NA	NA	NA	0	187	187	188	766.1166874000337	NA	NA	NA	NA	766.6500294001307	766.6500294001307	left	0	2.6505356999114156	NA	NA	pme	001	2026-02-17_15h03.42.378	MR	2023.1.0	60.03719910816333	NA
mr_images/11_b.png	mr_images/11_b_z_90.png	left	cw	90	NA	NA	NA	NA	0	188	188	41	769.3330481001176	NA	NA	NA	NA	769.8663272000849	769.8663272000849	right	0	2.340001499745995	NA	NA	pme	001	2026-02-17_15h03.42.378	MR	2023.1.0	60.03719910816333	NA
mr_images/12_b.png	mr_images/12_a_z_315.png	right	ccw	45	NA	NA	NA	NA	0	189	189	62	772.2325820999686	NA	NA	NA	NA	772.7657379999291	772.7657379999291	left	0	1.3897647997364402	NA	NA	pme	001	2026-02-17_15h03.42.378	MR	2023.1.0	60.03719910816333	NA
mr_images/5_a.png	mr_images/5_b_z_225.png	right	ccw	135	NA	NA	NA	NA	0	190	190	130	774.1822468999308	NA	NA	NA	NA	774.7155480000656	774.7155480000656	left	0	1.872118999948725	NA	NA	pme	001	2026-02-17_15h03.42.378	MR	2023.1.0	60.03719910816333	NA
mr_images/11_a.png	mr_images/11_a_z_315.png	left	ccw	45	NA	NA	NA	NA	0	191	191	27	776.6153570001479	NA	NA	NA	NA	777.1485282001086	777.1485282001086	None	0	NA	NA	NA	pme	001	2026-02-17_15h03.42.378	MR	2023.1.0	60.03719910816333	NA
mr_images/4_b.png	mr_images/4_a_z_315.png	right	ccw	45	NA	NA	NA	NA	0	192	192	110	782.1311858999543	NA	NA	NA	NA	NA	782.664558700053	left	0	1.012861699797213	NA	NA	pme	001	2026-02-17_15h03.42.378	MR	2023.1.0	60.03719910816333	NA
mr_images/4_b.png	mr_images/4_b_z_315.png	left	ccw	45	NA	NA	NA	NA	0	193	193	111	783.6976376001257	NA	NA	NA	NA	784.2308462001383	784.2308462001383	right	0	1.036675099749118	NA	NA	pme	001	2026-02-17_15h03.42.378	MR	2023.1.0	60.03719910816333	NA
mr_images/9_b.png	mr_images/9_a_z_270.png	right	ccw	90	NA	NA	NA	NA	0	194	194	210	785.2974434001371	NA	NA	NA	NA	785.8306982000358	785.8306982000358	left	0	2.003771699965	NA	NA	pme	001	2026-02-17_15h03.42.378	MR	2023.1.0	60.03719910816333	NA
mr_images/1_b.png	mr_images/1_b_z_315.png	left	ccw	45	NA	NA	NA	NA	0	195	195	15	787.8637409000657	NA	NA	NA	NA	788.3971774000674	788.3971774000674	right	0	1.0724533998873085	NA	NA	pme	001	2026-02-17_15h03.42.378	MR	2023.1.0	60.03719910816333	NA
mr_images/9_b.png	mr_images/9_b_z_45.png	left	cw	45	NA	NA	NA	NA	0	196	196	205	789.4969357999507	NA	NA	NA	NA	790.0301155999769	790.0301155999769	right	0	1.649081300012767	NA	NA	pme	001	2026-02-17_15h03.42.378	MR	2023.1.0	60.03719910816333	NA
mr_images/12_a.png	mr_images/12_b_z_135.png	right	cw	135	NA	NA	NA	NA	0	197	197	56	791.6965535001364	NA	NA	NA	NA	792.2297914000228	792.2297914000228	None	0	NA	NA	NA	pme	001	2026-02-17_15h03.42.378	MR	2023.1.0	60.03719910816333	NA
mr_images/4_b.png	mr_images/4_a_z_270.png	right	ccw	90	NA	NA	NA	NA	0	198	198	114	797.2124570999295	NA	NA	NA	NA	NA	797.7456714001019	left	0	1.3621926999185234	NA	NA	pme	001	2026-02-17_15h03.42.378	MR	2023.1.0	60.03719910816333	NA
mr_images/4_a.png	mr_images/4_b_z_315.png	right	ccw	45	NA	NA	NA	NA	0	199	199	98	799.1288682001177	NA	NA	NA	NA	799.662109100027	799.662109100027	left	0	1.0056863999925554	NA	NA	pme	001	2026-02-17_15h03.42.378	MR	2023.1.0	60.03719910816333	NA
mr_images/3_a.png	mr_images/3_b_z_315.png	right	ccw	45	NA	NA	NA	NA	0	200	200	74	800.6954344001133	NA	NA	NA	NA	801.2285786999855	801.2285786999855	left	0	0.7957753997761756	NA	NA	pme	001	2026-02-17_15h03.42.378	MR	2023.1.0	60.03719910816333	NA
mr_images/3_b.png	mr_images/3_a_z_225.png	right	ccw	135	NA	NA	NA	NA	0	201	201	94	802.0451408000663	NA	NA	NA	NA	802.578422700055	802.578422700055	left	0	1.2551344998646528	NA	NA	pme	001	2026-02-17_15h03.42.378	MR	2023.1.0	60.03719910816333	NA
mr_images/1_a.png	mr_images/1_a_z_135.png	left	cw	135	NA	NA	NA	NA	0	202	202	9	803.8614817999769	NA	NA	NA	NA	804.3946976999287	804.3946976999287	right	0	2.759190100012347	NA	NA	pme	001	2026-02-17_15h03.42.378	MR	2023.1.0	60.03719910816333	NA
mr_images/1_b.png	mr_images/1_b_z_225.png	left	ccw	135	NA	NA	NA	NA	0	203	203	23	807.1776608999353	NA	NA	NA	NA	807.7109640000854	807.7109640000854	right	0	2.938187099993229	NA	NA	pme	001	2026-02-17_15h03.42.378	MR	2023.1.0	60.03719910816333	NA
mr_images/6_b.png	mr_images/6_a_z_135.png	right	cw	135	NA	NA	NA	NA	0	204	204	164	810.6772630000487	NA	NA	NA	NA	811.2106212999206	811.2106212999206	left	0	2.848606599960476	NA	NA	pme	001	2026-02-17_15h03.42.378	MR	2023.1.0	60.03719910816333	NA
mr_images/11_a.png	mr_images/11_b_z_315.png	right	ccw	45	NA	NA	NA	NA	0	205	205	26	814.0768715001177	NA	NA	NA	NA	814.6100461001042	814.6100461001042	left	0	1.0755699998699129	NA	NA	pme	001	2026-02-17_15h03.42.378	MR	2023.1.0	60.03719910816333	NA
mr_images/3_b.png	mr_images/3_b_z_135.png	left	cw	135	NA	NA	NA	NA	0	206	206	93	815.7098586000502	NA	NA	NA	NA	816.2430475000292	816.2430475000292	right	0	2.605021599913016	NA	NA	pme	001	2026-02-17_15h03.42.378	MR	2023.1.0	60.03719910816333	NA
mr_images/11_b.png	mr_images/11_b_z_135.png	left	cw	135	NA	NA	NA	NA	0	207	207	45	818.8760745001491	NA	NA	NA	NA	819.4094974999316	819.4094974999316	right	0	4.513047799933702	NA	NA	pme	001	2026-02-17_15h03.42.378	MR	2023.1.0	60.03719910816333	NA
mr_images/3_b.png	mr_images/3_b_z_90.png	left	cw	90	NA	NA	NA	NA	0	208	208	89	823.9420104001183	NA	NA	NA	NA	824.4587505999953	824.4587505999953	right	0	1.7470933999866247	NA	NA	pme	001	2026-02-17_15h03.42.378	MR	2023.1.0	60.03719910816333	NA
mr_images/9_a.png	mr_images/9_b_z_270.png	right	ccw	90	NA	NA	NA	NA	0	209	209	198	826.2250964001287	NA	NA	NA	NA	826.7582781000528	826.7582781000528	left	0	1.2939554997719824	NA	NA	pme	001	2026-02-17_15h03.42.378	MR	2023.1.0	60.03719910816333	NA
mr_images/11_a.png	mr_images/11_a_z_135.png	left	cw	135	NA	NA	NA	NA	0	210	210	33	828.0748795000836	NA	NA	NA	NA	828.6088803000748	828.6088803000748	None	0	NA	NA	NA	pme	001	2026-02-17_15h03.42.378	MR	2023.1.0	60.03719910816333	NA
mr_images/12_b.png	mr_images/12_a_z_270.png	right	ccw	90	NA	NA	NA	NA	0	211	211	66	833.5907862000167	NA	NA	NA	NA	NA	834.1239682000596	left	0	1.983762500109151	NA	NA	pme	001	2026-02-17_15h03.42.378	MR	2023.1.0	60.03719910816333	NA
mr_images/5_b.png	mr_images/5_a_z_225.png	right	ccw	135	NA	NA	NA	NA	0	212	212	142	836.1403294999618	NA	NA	NA	NA	836.6736538000405	836.6736538000405	left	0	2.3146993999835104	NA	NA	pme	001	2026-02-17_15h03.42.378	MR	2023.1.0	60.03719910816333	NA
mr_images/9_a.png	mr_images/9_a_z_315.png	left	ccw	45	NA	NA	NA	NA	0	213	213	195	839.0067346999422	NA	NA	NA	NA	839.5398618001491	839.5398618001491	right	0	3.794707799796015	NA	NA	pme	001	2026-02-17_15h03.42.378	MR	2023.1.0	60.03719910816333	NA
mr_images/11_b.png	mr_images/11_a_z_45.png	right	cw	45	NA	NA	NA	NA	0	214	214	36	843.356003700057	NA	NA	NA	NA	843.8893808000721	843.8893808000721	right	1	2.619280899874866	NA	NA	pme	001	2026-02-17_15h03.42.378	MR	2023.1.0	60.03719910816333	NA
mr_images/5_a.png	mr_images/5_b_z_45.png	right	cw	45	NA	NA	NA	NA	0	215	215	120	846.5389211000875	NA	NA	NA	NA	847.0721527000424	847.0721527000424	left	0	3.480167099973187	NA	NA	pme	001	2026-02-17_15h03.42.378	MR	2023.1.0	60.03719910816333	NA
NA	NA	NA	NA	NA	NA	NA	NA	NA	NA	NA	NA	NA	NA	NA	NA	NA	NA	NA	NA	NA	NA	NA	850.5716828999575	852.5714487999212	NA	NA	NA	NA	NA	NA	NA
