clr1p1	clr2p1	clr3p1	clr4p1	clr1p2	clr2p2	clr3p2	clr4p2	Hshow	Htest	stim_var	blank_clr	difficulty	answ	l_test	r_test	realclr2	realclr3	realclr	training.thisRepN	training.thisTrialN	training.thisN	training.thisIndex	trials.thisRepN	trials.thisTrialN	trials.thisN	trials.thisIndex	CC_resp_2.keys	CC_resp_2.corr	CC_resp_2.rt	CC_resp.keys	CC_resp.corr	CC_resp.rt	participant	session	date	expName	psychopyVersion	frameRate
#E53935	#B71C1C	#FFEBEE	#E57373	#7CB342	#000000	#F1F8E9	#AED581	red	l_green	l_rand1	clr2	low	right	#689F38	#33691E	#33691E	#F1F8E9	#33691E	0	0	0	25	NA	NA	NA	NA	left	0	4.517439800314605	NA	NA	NA	aad	1	2026-06-01_15h42.29.273	MCT	2023.1.0	60.13062779045863
#5E35B1	#311B92	#EDE7F6	#9575CD	#6D4C41	#3E2723	#000000	#A1887F	d_purple	brown	l_rand1	clr3	low	left	#EFEBE9	#BCAAA4	#3E2723	#EFEBE9	#EFEBE9	0	1	1	35	NA	NA	NA	NA	right	0	1.7526681004092095	NA	NA	NA	aad	1	2026-06-01_15h42.29.274	MCT	2023.1.0	60.13062779045863
#3E2723	#EFEBE9	#6D4C41	#A1887F	#0D47A1	#E3F2FD	#000000	#64B5F6	brown	blue	l_rand2	clr3	high	right	#2196F3	#1E88E5	#E3F2FD	#1E88E5	#1E88E5	0	2	2	54	NA	NA	NA	NA	left	0	1.4972267001867294	NA	NA	NA	aad	1	2026-06-01_15h42.29.275	MCT	2023.1.0	60.13062779045863
#00ACC1	#006064	#E0F7FA	#4DD0E1	#43A047	#1B5E20	#000000	#81C784	cyan	green	l_rand1	clr3	low	left	#E8F5E9	#A5D6A7	#1B5E20	#E8F5E9	#E8F5E9	0	3	3	36	NA	NA	NA	NA	right	0	1.7566470000892878	NA	NA	NA	aad	1	2026-06-01_15h42.29.276	MCT	2023.1.0	60.13062779045863
#B71C1C	#E53935	#E57373	#FFEBEE	#004D40	#000000	#4DB6AC	#E0F2F1	red	lime	l_up	clr2	low	left	#00897B	#00695C	#00897B	#4DB6AC	NA	NA	NA	NA	NA	0	0	0	66	NA	NA	NA	right	0	3.89198026744416	aad	1	2026-06-01_15h42.29.277	MCT	2023.1.0	60.13062779045863
#E8EAF6	#7986CB	#3949AB	#1A237E	#FFF3E0	#FFB74D	#000000	#E65100	indigo	orange	l_down	clr3	high	left	#FB8C00	#FF9800	#FFB74D	#FB8C00	NA	NA	NA	NA	NA	0	1	1	10	NA	NA	NA	right	1	0.637773738161195	aad	1	2026-06-01_15h42.29.278	MCT	2023.1.0	60.13062779045863
#039BE5	#01579B	#E1F5FE	#4FC3F7	#D81B60	#000000	#FCE4EC	#F06292	l_blue	pink	l_rand1	clr2	none	left	#880E4F	#BF360C	#880E4F	#FCE4EC	NA	NA	NA	NA	NA	0	2	2	91	NA	NA	NA	left	1	0.397335188940633	aad	1	2026-06-01_15h42.29.279	MCT	2023.1.0	60.13062779045863
#1B5E20	#43A047	#81C784	#E8F5E9	#004D40	#000000	#4DB6AC	#E0F2F1	green	teal	l_up	clr2	none	right	#7CB342	#00897B	#00897B	#4DB6AC	NA	NA	NA	NA	NA	0	3	3	115	NA	NA	NA	right	1	0.639149073010776	aad	1	2026-06-01_15h42.29.280	MCT	2023.1.0	60.13062779045863
#004D40	#E0F2F1	#00897B	#4DB6AC	#BF360C	#FBE9E7	#000000	#FF8A65	teal	d_orange	l_rand2	clr3	low	right	#D84315	#F4511E	#FBE9E7	#F4511E	NA	NA	NA	NA	NA	0	4	4	59	NA	NA	NA	left	0	1.4719182525645	aad	1	2026-06-01_15h42.29.281	MCT	2023.1.0	60.13062779045863
#E53935	#B71C1C	#FFEBEE	#E57373	#7CB342	#000000	#F1F8E9	#AED581	red	l_green	l_rand1	clr2	low	right	#689F38	#33691E	#33691E	#F1F8E9	NA	NA	NA	NA	NA	0	5	5	25	NA	NA	NA	right	1	0.672698405559641	aad	1	2026-06-01_15h42.29.282	MCT	2023.1.0	60.13062779045863
#E65100	#FFF3E0	#FB8C00	#FFB74D	#004D40	#E0F2F1	#000000	#4DB6AC	orange	teal	l_rand2	clr3	low	left	#00897B	#00695C	#E0F2F1	#00897B	NA	NA	NA	NA	NA	0	6	6	58	NA	NA	NA	left	1	0.595944670808967	aad	1	2026-06-01_15h42.29.283	MCT	2023.1.0	60.13062779045863
#1E88E5	#0D47A1	#E3F2FD	#64B5F6	#C0CA33	#827717	#000000	#DCE775	blue	lime	l_rand1	clr3	high	right	#F0F4C3	#F9FBE7	#827717	#F9FBE7	NA	NA	NA	NA	NA	0	7	7	32	NA	NA	NA	left	0	0.590374791494105	aad	1	2026-06-01_15h42.29.284	MCT	2023.1.0	60.13062779045863
#004D40	#00897B	#4DB6AC	#E0F2F1	#3E2723	#000000	#A1887F	#EFEBE9	teal	brown	l_up	clr2	low	left	#6D4C41	#4E342E	#6D4C41	#A1887F	NA	NA	NA	NA	NA	0	8	8	67	NA	NA	NA	left	1	1.17232193237869	aad	1	2026-06-01_15h42.29.285	MCT	2023.1.0	60.13062779045863
#3E2723	#6D4C41	#A1887F	#EFEBE9	#006064	#00ACC1	#000000	#E0F7FA	brown	cyan	l_up	clr3	low	left	#4DD0E1	#B2EBF2	#00ACC1	#4DD0E1	NA	NA	NA	NA	NA	0	9	9	76	NA	NA	NA	left	1	0.396862451278139	aad	1	2026-06-01_15h42.29.286	MCT	2023.1.0	60.13062779045863
#FCE4EC	#F06292	#D81B60	#880E4F	#FBE9E7	#000000	#F4511E	#BF360C	pink	d_orange	l_down	clr2	none	right	#FFD54F	#FF8A65	#FF8A65	#F4511E	NA	NA	NA	NA	NA	0	10	10	84	NA	NA	NA	right	1	0.174956111924257	aad	1	2026-06-01_15h42.29.287	MCT	2023.1.0	60.13062779045863
#7CB342	#33691E	#F1F8E9	#AED581	#8E24AA	#000000	#F3E5F5	#BA68C8	l_green	purple	l_rand1	clr2	none	left	#4A148C	#B71C1C	#4A148C	#F3E5F5	NA	NA	NA	NA	NA	0	11	11	92	NA	NA	NA	left	1	0.957720211113337	aad	1	2026-06-01_15h42.29.288	MCT	2023.1.0	60.13062779045863
#880E4F	#FCE4EC	#D81B60	#F06292	#33691E	#000000	#7CB342	#AED581	pink	l_green	l_rand2	clr2	none	left	#F1F8E9	#FFFDE7	#F1F8E9	#7CB342	NA	NA	NA	NA	NA	0	12	12	100	NA	NA	NA	right	0	0.142545024806168	aad	1	2026-06-01_15h42.29.289	MCT	2023.1.0	60.13062779045863
#33691E	#7CB342	#AED581	#F1F8E9	#880E4F	#000000	#F06292	#FCE4EC	l_green	pink	l_up	clr2	high	left	#D81B60	#E91E63	#D81B60	#F06292	NA	NA	NA	NA	NA	0	13	13	61	NA	NA	NA	left	1	0.704421876056586	aad	1	2026-06-01_15h42.29.290	MCT	2023.1.0	60.13062779045863
#F4511E	#BF360C	#FBE9E7	#FF8A65	#43A047	#1B5E20	#000000	#81C784	d_orange	green	l_rand1	clr3	low	left	#E8F5E9	#A5D6A7	#1B5E20	#E8F5E9	NA	NA	NA	NA	NA	0	14	14	38	NA	NA	NA	left	1	0.50525014459854	aad	1	2026-06-01_15h42.29.291	MCT	2023.1.0	60.13062779045863
#FFB300	#FF6F00	#FFF8E1	#FFD54F	#039BE5	#01579B	#000000	#4FC3F7	amber	l_blue	l_rand1	clr3	none	right	#E8EAF6	#E1F5FE	#01579B	#E1F5FE	NA	NA	NA	NA	NA	0	15	15	99	NA	NA	NA	right	1	1.77578724353807	aad	1	2026-06-01_15h42.29.292	MCT	2023.1.0	60.13062779045863
#F57F17	#FFFDE7	#FDD835	#FFF176	#BF360C	#FBE9E7	#000000	#FF8A65	yellow	d_orange	l_rand2	clr3	none	right	#D81B60	#F4511E	#FBE9E7	#F4511E	NA	NA	NA	NA	NA	0	16	16	108	NA	NA	NA	right	1	0.194588996551465	aad	1	2026-06-01_15h42.29.293	MCT	2023.1.0	60.13062779045863
#880E4F	#D81B60	#F06292	#FCE4EC	#B71C1C	#000000	#E57373	#FFEBEE	pink	red	l_up	clr2	low	right	#EF5350	#E53935	#E53935	#E57373	NA	NA	NA	NA	NA	0	17	17	68	NA	NA	NA	right	1	0.59935924889287	aad	1	2026-06-01_15h42.29.294	MCT	2023.1.0	60.13062779045863
#006064	#00ACC1	#4DD0E1	#E0F7FA	#01579B	#039BE5	#000000	#E1F5FE	cyan	l_blue	l_up	clr3	high	right	#81D4FA	#4FC3F7	#039BE5	#4FC3F7	NA	NA	NA	NA	NA	0	18	18	72	NA	NA	NA	left	0	0.890208229573909	aad	1	2026-06-01_15h42.29.295	MCT	2023.1.0	60.13062779045863
#E8F5E9	#81C784	#43A047	#1B5E20	#FFEBEE	#000000	#E53935	#B71C1C	green	red	l_down	clr2	none	right	#FFB74D	#E57373	#E57373	#E53935	NA	NA	NA	NA	NA	0	19	19	85	NA	NA	NA	right	1	0.491639336163644	aad	1	2026-06-01_15h42.29.296	MCT	2023.1.0	60.13062779045863
#E1F5FE	#4FC3F7	#039BE5	#01579B	#EDE7F6	#9575CD	#000000	#311B92	l_blue	d_purple	l_down	clr3	low	left	#5E35B1	#7E57C2	#9575CD	#5E35B1	NA	NA	NA	NA	NA	0	20	20	14	NA	NA	NA	right	0	1.41216916531557	aad	1	2026-06-01_15h42.29.297	MCT	2023.1.0	60.13062779045863
#FFF8E1	#FFD54F	#FFB300	#FF6F00	#E8EAF6	#7986CB	#000000	#1A237E	amber	indigo	l_down	clr3	none	right	#039BE5	#3949AB	#7986CB	#3949AB	NA	NA	NA	NA	NA	0	21	21	89	NA	NA	NA	right	1	0.784539478190709	aad	1	2026-06-01_15h42.29.298	MCT	2023.1.0	60.13062779045863
#00897B	#004D40	#E0F2F1	#4DB6AC	#FFB300	#000000	#FFF8E1	#FFD54F	teal	amber	l_rand1	clr2	low	right	#FFA000	#FF6F00	#FF6F00	#FFF8E1	NA	NA	NA	NA	NA	0	22	22	27	NA	NA	NA	left	0	0.32905108347768	aad	1	2026-06-01_15h42.29.299	MCT	2023.1.0	60.13062779045863
#311B92	#5E35B1	#9575CD	#EDE7F6	#880E4F	#000000	#F06292	#FCE4EC	d_purple	pink	l_up	clr2	none	right	#F4511E	#D81B60	#D81B60	#F06292	NA	NA	NA	NA	NA	0	23	23	114	NA	NA	NA	right	1	0.369113723409828	aad	1	2026-06-01_15h42.29.300	MCT	2023.1.0	60.13062779045863
#01579B	#039BE5	#4FC3F7	#E1F5FE	#F57F17	#FDD835	#000000	#FFFDE7	l_blue	yellow	l_up	clr3	high	left	#FFF176	#FFEE58	#FDD835	#FFF176	NA	NA	NA	NA	NA	0	24	24	70	NA	NA	NA	left	1	0.611925274378155	aad	1	2026-06-01_15h42.29.301	MCT	2023.1.0	60.13062779045863
#B71C1C	#FFEBEE	#E53935	#E57373	#E65100	#000000	#FB8C00	#FFB74D	red	orange	l_rand2	clr2	low	right	#FFCC80	#FFF3E0	#FFF3E0	#FB8C00	NA	NA	NA	NA	NA	0	25	25	49	NA	NA	NA	left	0	1.2903616768308	aad	1	2026-06-01_15h42.29.302	MCT	2023.1.0	60.13062779045863
#BF360C	#F4511E	#FF8A65	#FBE9E7	#33691E	#7CB342	#000000	#F1F8E9	d_orange	l_green	l_up	clr3	high	right	#C5E1A5	#AED581	#7CB342	#AED581	NA	NA	NA	NA	NA	0	26	26	73	NA	NA	NA	right	1	0.348263167391997	aad	1	2026-06-01_15h42.29.303	MCT	2023.1.0	60.13062779045863
#E65100	#FB8C00	#FFB74D	#FFF3E0	#0D47A1	#1E88E5	#000000	#E3F2FD	orange	blue	l_up	clr3	high	left	#64B5F6	#42A5F5	#1E88E5	#64B5F6	NA	NA	NA	NA	NA	0	27	27	71	NA	NA	NA	left	1	1.10347758623539	aad	1	2026-06-01_15h42.29.304	MCT	2023.1.0	60.13062779045863
#006064	#00ACC1	#4DD0E1	#E0F7FA	#01579B	#039BE5	#000000	#E1F5FE	cyan	l_blue	l_up	clr3	none	right	#4DB6AC	#4FC3F7	#039BE5	#4FC3F7	NA	NA	NA	NA	NA	0	28	28	118	NA	NA	NA	right	1	0.721455695654731	aad	1	2026-06-01_15h42.29.305	MCT	2023.1.0	60.13062779045863
#B71C1C	#FFEBEE	#E53935	#E57373	#1A237E	#E8EAF6	#000000	#7986CB	red	indigo	l_rand2	clr3	none	right	#8E24AA	#3949AB	#E8EAF6	#3949AB	NA	NA	NA	NA	NA	0	29	29	105	NA	NA	NA	right	1	0.556761515175458	aad	1	2026-06-01_15h42.29.306	MCT	2023.1.0	60.13062779045863
#FB8C00	#E65100	#FFF3E0	#FFB74D	#FDD835	#000000	#FFFDE7	#FFF176	orange	yellow	l_rand1	clr2	high	left	#F57F17	#F9A825	#F57F17	#FFFDE7	NA	NA	NA	NA	NA	0	30	30	23	NA	NA	NA	right	0	0.836611904052552	aad	1	2026-06-01_15h42.29.307	MCT	2023.1.0	60.13062779045863
#1B5E20	#43A047	#81C784	#E8F5E9	#004D40	#000000	#4DB6AC	#E0F2F1	green	lime	l_up	clr2	high	right	#00796B	#00897B	#00897B	#4DB6AC	NA	NA	NA	NA	NA	0	31	31	65	NA	NA	NA	left	0	1.67410762173822	aad	1	2026-06-01_15h42.29.308	MCT	2023.1.0	60.13062779045863
#6D4C41	#3E2723	#EFEBE9	#A1887F	#00ACC1	#000000	#E0F7FA	#4DD0E1	brown	cyan	l_rand1	clr2	low	right	#0097A7	#006064	#006064	#E0F7FA	NA	NA	NA	NA	NA	0	32	32	29	NA	NA	NA	right	1	0.936291305872146	aad	1	2026-06-01_15h42.29.309	MCT	2023.1.0	60.13062779045863
#8E24AA	#4A148C	#F3E5F5	#BA68C8	#5E35B1	#000000	#EDE7F6	#9575CD	purple	d_purple	l_rand1	clr2	high	left	#311B92	#4527A0	#311B92	#EDE7F6	NA	NA	NA	NA	NA	0	33	33	20	NA	NA	NA	right	0	0.885951037716586	aad	1	2026-06-01_15h42.29.310	MCT	2023.1.0	60.13062779045863
#D81B60	#880E4F	#FCE4EC	#F06292	#FDD835	#F57F17	#000000	#FFF176	pink	yellow	l_rand1	clr3	none	right	#FFF3E0	#FFFDE7	#F57F17	#FFFDE7	NA	NA	NA	NA	NA	0	34	34	96	NA	NA	NA	left	0	1.18012111481512	aad	1	2026-06-01_15h42.29.311	MCT	2023.1.0	60.13062779045863
#FF6F00	#FFB300	#FFD54F	#FFF8E1	#1A237E	#3949AB	#000000	#E8EAF6	amber	indigo	l_up	clr3	low	right	#C5CAE9	#7986CB	#3949AB	#7986CB	NA	NA	NA	NA	NA	0	35	35	78	NA	NA	NA	right	1	0.889254682755564	aad	1	2026-06-01_15h42.29.312	MCT	2023.1.0	60.13062779045863
#FF6F00	#FFF8E1	#FFB300	#FFD54F	#4A148C	#000000	#8E24AA	#BA68C8	amber	purple	l_rand2	clr2	none	right	#E8EAF6	#F3E5F5	#F3E5F5	#8E24AA	NA	NA	NA	NA	NA	0	36	36	104	NA	NA	NA	right	1	0.241505079937633	aad	1	2026-06-01_15h42.29.313	MCT	2023.1.0	60.13062779045863
#BF360C	#FBE9E7	#F4511E	#FF8A65	#B71C1C	#000000	#E53935	#E57373	d_orange	red	l_rand2	clr2	low	right	#EF9A9A	#FFEBEE	#FFEBEE	#E53935	NA	NA	NA	NA	NA	0	37	37	48	NA	NA	NA	left	0	0.753970835811924	aad	1	2026-06-01_15h42.29.314	MCT	2023.1.0	60.13062779045863
#004D40	#E0F2F1	#00897B	#4DB6AC	#E65100	#000000	#FB8C00	#FFB74D	lime	orange	l_rand2	clr2	low	right	#FFCC80	#FFF3E0	#FFF3E0	#FB8C00	NA	NA	NA	NA	NA	0	38	38	47	NA	NA	NA	right	1	0.576065055828076	aad	1	2026-06-01_15h42.29.315	MCT	2023.1.0	60.13062779045863
#E3F2FD	#64B5F6	#1E88E5	#0D47A1	#E0F2F1	#4DB6AC	#000000	#004D40	blue	teal	l_down	clr3	high	right	#00796B	#00897B	#4DB6AC	#00897B	NA	NA	NA	NA	NA	0	39	39	12	NA	NA	NA	left	1	0.9432578197564	aad	1	2026-06-01_15h42.29.316	MCT	2023.1.0	60.13062779045863
#3E2723	#EFEBE9	#6D4C41	#A1887F	#0D47A1	#E3F2FD	#000000	#64B5F6	brown	blue	l_rand2	clr3	high	right	#2196F3	#1E88E5	#E3F2FD	#1E88E5	NA	NA	NA	NA	NA	0	40	40	54	NA	NA	NA	right	1	0.743526594887953	aad	1	2026-06-01_15h42.29.317	MCT	2023.1.0	60.13062779045863
#FFF8E1	#FFD54F	#FFB300	#FF6F00	#E8EAF6	#7986CB	#000000	#1A237E	amber	indigo	l_down	clr3	high	right	#3F51B5	#3949AB	#7986CB	#3949AB	NA	NA	NA	NA	NA	0	41	41	13	NA	NA	NA	right	1	2.16289845878491	aad	1	2026-06-01_15h42.29.318	MCT	2023.1.0	60.13062779045863
#311B92	#5E35B1	#9575CD	#EDE7F6	#1B5E20	#000000	#81C784	#E8F5E9	d_purple	green	l_up	clr2	high	right	#4CAF50	#43A047	#43A047	#81C784	NA	NA	NA	NA	NA	0	42	42	62	NA	NA	NA	right	1	1.02444296478061	aad	1	2026-06-01_15h42.29.319	MCT	2023.1.0	60.13062779045863
#00897B	#004D40	#E0F2F1	#4DB6AC	#3949AB	#1A237E	#000000	#7986CB	lime	indigo	l_rand1	clr3	low	left	#E8EAF6	#9FA8DA	#1A237E	#E8EAF6	NA	NA	NA	NA	NA	0	43	43	37	NA	NA	NA	left	1	0.441609959199559	aad	1	2026-06-01_15h42.29.320	MCT	2023.1.0	60.13062779045863
#311B92	#EDE7F6	#5E35B1	#9575CD	#B71C1C	#000000	#E53935	#E57373	d_purple	red	l_rand2	clr2	low	right	#EF9A9A	#FFEBEE	#FFEBEE	#E53935	NA	NA	NA	NA	NA	0	44	44	45	NA	NA	NA	right	1	0.645605038420763	aad	1	2026-06-01_15h42.29.321	MCT	2023.1.0	60.13062779045863
#3949AB	#1A237E	#E8EAF6	#7986CB	#7CB342	#000000	#F1F8E9	#AED581	indigo	l_green	l_rand1	clr2	high	left	#33691E	#558B2F	#33691E	#F1F8E9	NA	NA	NA	NA	NA	0	45	45	24	NA	NA	NA	left	1	0.813722405943554	aad	1	2026-06-01_15h42.29.322	MCT	2023.1.0	60.13062779045863
#E0F2F1	#4DB6AC	#00897B	#004D40	#FFFDE7	#000000	#FDD835	#F57F17	teal	yellow	l_down	clr2	high	left	#FFF176	#FFF59D	#FFF176	#FDD835	NA	NA	NA	NA	NA	0	46	46	1	NA	NA	NA	left	1	0.851602989982348	aad	1	2026-06-01_15h42.29.323	MCT	2023.1.0	60.13062779045863
#004D40	#E0F2F1	#00897B	#4DB6AC	#3E2723	#EFEBE9	#000000	#A1887F	teal	brown	l_rand2	clr3	none	right	#FB8C00	#6D4C41	#EFEBE9	#6D4C41	NA	NA	NA	NA	NA	0	47	47	107	NA	NA	NA	right	1	0.718533376639243	aad	1	2026-06-01_15h42.29.324	MCT	2023.1.0	60.13062779045863
#E8F5E9	#81C784	#43A047	#1B5E20	#FFEBEE	#000000	#E53935	#B71C1C	green	red	l_down	clr2	high	right	#EF9A9A	#E57373	#E57373	#E53935	NA	NA	NA	NA	NA	0	48	48	5	NA	NA	NA	right	1	0.661883875459898	aad	1	2026-06-01_15h42.29.325	MCT	2023.1.0	60.13062779045863
#FFF3E0	#FFB74D	#FB8C00	#E65100	#FCE4EC	#F06292	#000000	#880E4F	orange	pink	l_down	clr3	low	left	#D81B60	#EC407A	#F06292	#D81B60	NA	NA	NA	NA	NA	0	49	49	15	NA	NA	NA	left	1	0.347065186139662	aad	1	2026-06-01_15h42.29.326	MCT	2023.1.0	60.13062779045863
#E0F2F1	#4DB6AC	#00897B	#004D40	#FFFDE7	#000000	#FDD835	#F57F17	teal	yellow	l_down	clr2	none	left	#FFF176	#FFB74D	#FFF176	#FDD835	NA	NA	NA	NA	NA	0	50	50	81	NA	NA	NA	right	0	1.05545468589989	aad	1	2026-06-01_15h42.29.327	MCT	2023.1.0	60.13062779045863
#FF6F00	#FFF8E1	#FFB300	#FFD54F	#4A148C	#000000	#8E24AA	#BA68C8	amber	purple	l_rand2	clr2	high	right	#E1BEE7	#F3E5F5	#F3E5F5	#8E24AA	NA	NA	NA	NA	NA	0	51	51	44	NA	NA	NA	left	0	0.502800246619154	aad	1	2026-06-01_15h42.29.328	MCT	2023.1.0	60.13062779045863
#E0F2F1	#4DB6AC	#00897B	#004D40	#FBE9E7	#000000	#F4511E	#BF360C	lime	d_orange	l_down	clr2	low	right	#FF5722	#FF8A65	#FF8A65	#F4511E	NA	NA	NA	NA	NA	0	52	52	9	NA	NA	NA	left	0	0.64937879309291	aad	1	2026-06-01_15h42.29.329	MCT	2023.1.0	60.13062779045863
#5E35B1	#311B92	#EDE7F6	#9575CD	#6D4C41	#3E2723	#000000	#A1887F	d_purple	brown	l_rand1	clr3	low	left	#EFEBE9	#BCAAA4	#3E2723	#EFEBE9	NA	NA	NA	NA	NA	0	53	53	35	NA	NA	NA	right	0	1.54176541870693	aad	1	2026-06-01_15h42.29.330	MCT	2023.1.0	60.13062779045863
#F57F17	#FDD835	#FFF176	#FFFDE7	#33691E	#7CB342	#000000	#F1F8E9	yellow	l_green	l_up	clr3	low	left	#AED581	#DCEDC8	#7CB342	#AED581	NA	NA	NA	NA	NA	0	54	54	75	NA	NA	NA	left	1	1.34269669371424	aad	1	2026-06-01_15h42.29.331	MCT	2023.1.0	60.13062779045863
#FF6F00	#FFF8E1	#FFB300	#FFD54F	#880E4F	#000000	#D81B60	#F06292	amber	pink	l_rand2	clr2	high	left	#FCE4EC	#F8BBD0	#FCE4EC	#D81B60	NA	NA	NA	NA	NA	0	55	55	43	NA	NA	NA	right	0	0.801851934811566	aad	1	2026-06-01_15h42.29.332	MCT	2023.1.0	60.13062779045863
#4A148C	#8E24AA	#BA68C8	#F3E5F5	#0D47A1	#000000	#64B5F6	#E3F2FD	purple	blue	l_up	clr2	none	left	#1E88E5	#00ACC1	#1E88E5	#64B5F6	NA	NA	NA	NA	NA	0	56	56	110	NA	NA	NA	left	1	1.89981814125786	aad	1	2026-06-01_15h42.29.333	MCT	2023.1.0	60.13062779045863
#E0F7FA	#4DD0E1	#00ACC1	#006064	#EFEBE9	#A1887F	#000000	#3E2723	cyan	brown	l_down	clr3	low	right	#8D6E63	#6D4C41	#A1887F	#6D4C41	NA	NA	NA	NA	NA	0	57	57	18	NA	NA	NA	right	1	1.04801823318703	aad	1	2026-06-01_15h42.29.334	MCT	2023.1.0	60.13062779045863
#01579B	#E1F5FE	#039BE5	#4FC3F7	#FF6F00	#FFF8E1	#000000	#FFD54F	l_blue	amber	l_rand2	clr3	low	left	#FFB300	#FF8F00	#FFF8E1	#FFB300	NA	NA	NA	NA	NA	0	58	58	56	NA	NA	NA	left	1	1.00111947898986	aad	1	2026-06-01_15h42.29.335	MCT	2023.1.0	60.13062779045863
#311B92	#5E35B1	#9575CD	#EDE7F6	#880E4F	#000000	#F06292	#FCE4EC	d_purple	pink	l_up	clr2	high	right	#E91E63	#D81B60	#D81B60	#F06292	NA	NA	NA	NA	NA	0	59	59	64	NA	NA	NA	left	0	0.633600589388516	aad	1	2026-06-01_15h42.29.336	MCT	2023.1.0	60.13062779045863
#33691E	#7CB342	#AED581	#F1F8E9	#880E4F	#000000	#F06292	#FCE4EC	l_green	pink	l_up	clr2	none	left	#D81B60	#5E35B1	#D81B60	#F06292	NA	NA	NA	NA	NA	0	60	60	111	NA	NA	NA	left	1	0.876169240556192	aad	1	2026-06-01_15h42.29.337	MCT	2023.1.0	60.13062779045863
#3949AB	#1A237E	#E8EAF6	#7986CB	#7CB342	#000000	#F1F8E9	#AED581	indigo	l_green	l_rand1	clr2	none	left	#33691E	#004D40	#33691E	#F1F8E9	NA	NA	NA	NA	NA	0	61	61	94	NA	NA	NA	left	0	0.844978558679577	aad	1	2026-06-01_15h42.29.338	MCT	2023.1.0	60.13062779045863
#039BE5	#01579B	#E1F5FE	#4FC3F7	#D81B60	#000000	#FCE4EC	#F06292	l_blue	pink	l_rand1	clr2	high	left	#880E4F	#AD1457	#880E4F	#FCE4EC	NA	NA	NA	NA	NA	0	62	62	21	NA	NA	NA	left	0	1.28332051591715	aad	1	2026-06-01_15h42.29.339	MCT	2023.1.0	60.13062779045863
#F1F8E9	#AED581	#7CB342	#33691E	#FFF3E0	#000000	#FB8C00	#E65100	l_green	orange	l_down	clr2	low	left	#FFB74D	#FFE0B2	#FFB74D	#FB8C00	NA	NA	NA	NA	NA	0	63	63	7	NA	NA	NA	left	0	0.801121062983293	aad	1	2026-06-01_15h42.29.340	MCT	2023.1.0	60.13062779045863
#33691E	#F1F8E9	#7CB342	#AED581	#0D47A1	#E3F2FD	#000000	#64B5F6	l_green	blue	l_rand2	clr3	low	left	#1E88E5	#42A5F5	#E3F2FD	#1E88E5	NA	NA	NA	NA	NA	0	64	64	57	NA	NA	NA	left	0	0.900935096398462	aad	1	2026-06-01_15h42.29.341	MCT	2023.1.0	60.13062779045863
#FFF8E1	#FFD54F	#FFB300	#FF6F00	#EFEBE9	#A1887F	#000000	#3E2723	amber	brown	l_down	clr3	low	left	#6D4C41	#8D6E63	#A1887F	#6D4C41	NA	NA	NA	NA	NA	0	65	65	17	NA	NA	NA	left	1	0.474388005782384	aad	1	2026-06-01_15h42.29.342	MCT	2023.1.0	60.13062779045863
#FFEBEE	#E57373	#E53935	#B71C1C	#E1F5FE	#000000	#039BE5	#01579B	red	l_blue	l_down	clr2	high	left	#4FC3F7	#81D4FA	#4FC3F7	#039BE5	NA	NA	NA	NA	NA	0	66	66	0	NA	NA	NA	left	1	1.06758694829186	aad	1	2026-06-01_15h42.29.343	MCT	2023.1.0	60.13062779045863
#7CB342	#33691E	#F1F8E9	#AED581	#8E24AA	#000000	#F3E5F5	#BA68C8	l_green	purple	l_rand1	clr2	high	left	#4A148C	#6A1B9A	#4A148C	#F3E5F5	NA	NA	NA	NA	NA	0	67	67	22	NA	NA	NA	right	1	0.620487090048846	aad	1	2026-06-01_15h42.29.344	MCT	2023.1.0	60.13062779045863
#FFEBEE	#E57373	#E53935	#B71C1C	#FFFDE7	#000000	#FDD835	#F57F17	red	yellow	l_down	clr2	none	left	#FFF176	#AED581	#FFF176	#FDD835	NA	NA	NA	NA	NA	0	68	68	83	NA	NA	NA	left	0	0.927863233361859	aad	1	2026-06-01_15h42.29.345	MCT	2023.1.0	60.13062779045863
#FFEBEE	#E57373	#E53935	#B71C1C	#E1F5FE	#000000	#039BE5	#01579B	red	l_blue	l_down	clr2	none	left	#4FC3F7	#7986CB	#4FC3F7	#039BE5	NA	NA	NA	NA	NA	0	69	69	80	NA	NA	NA	right	0	0.656045205343981	aad	1	2026-06-01_15h42.29.346	MCT	2023.1.0	60.13062779045863
#FFEBEE	#E57373	#E53935	#B71C1C	#FFFDE7	#000000	#FDD835	#F57F17	red	yellow	l_down	clr2	high	left	#FFF176	#FFEE58	#FFF176	#FDD835	NA	NA	NA	NA	NA	0	70	70	3	NA	NA	NA	left	1	0.951517014962156	aad	1	2026-06-01_15h42.29.347	MCT	2023.1.0	60.13062779045863
#006064	#E0F7FA	#00ACC1	#4DD0E1	#311B92	#000000	#5E35B1	#9575CD	cyan	d_purple	l_rand2	clr2	low	right	#B39DDB	#EDE7F6	#EDE7F6	#5E35B1	NA	NA	NA	NA	NA	0	71	71	46	NA	NA	NA	None	0	1.25253916541114	aad	1	2026-06-01_15h42.29.348	MCT	2023.1.0	60.13062779045863
#0D47A1	#E3F2FD	#1E88E5	#64B5F6	#4A148C	#000000	#8E24AA	#BA68C8	blue	purple	l_rand2	clr2	high	left	#F3E5F5	#E1BEE7	#F3E5F5	#8E24AA	NA	NA	NA	NA	NA	0	72	72	41	NA	NA	NA	right	0	1.07184604728827	aad	1	2026-06-01_15h42.29.349	MCT	2023.1.0	60.13062779045863
#43A047	#1B5E20	#E8F5E9	#81C784	#00ACC1	#006064	#000000	#4DD0E1	green	cyan	l_rand1	clr3	low	left	#E0F7FA	#80DEEA	#006064	#E0F7FA	NA	NA	NA	NA	NA	0	73	73	39	NA	NA	NA	left	1	0.896014610549901	aad	1	2026-06-01_15h42.29.350	MCT	2023.1.0	60.13062779045863
#FDD835	#F57F17	#FFFDE7	#FFF176	#FFB300	#FF6F00	#000000	#FFD54F	yellow	amber	l_rand1	clr3	high	left	#FFF8E1	#FFECB3	#FF6F00	#FFF8E1	NA	NA	NA	NA	NA	0	74	74	30	NA	NA	NA	right	0	1.30566697750473	aad	1	2026-06-01_15h42.29.351	MCT	2023.1.0	60.13062779045863
#1A237E	#E8EAF6	#3949AB	#7986CB	#01579B	#E1F5FE	#000000	#4FC3F7	indigo	l_blue	l_rand2	clr3	none	right	#00897B	#039BE5	#E1F5FE	#039BE5	NA	NA	NA	NA	NA	0	75	75	106	NA	NA	NA	right	1	0.15382934975205	aad	1	2026-06-01_15h42.29.352	MCT	2023.1.0	60.13062779045863
#1A237E	#3949AB	#7986CB	#E8EAF6	#311B92	#5E35B1	#000000	#EDE7F6	indigo	d_purple	l_up	clr3	low	left	#9575CD	#673AB7	#5E35B1	#9575CD	NA	NA	NA	NA	NA	0	76	76	74	NA	NA	NA	left	0	0.795799782092217	aad	1	2026-06-01_15h42.29.353	MCT	2023.1.0	60.13062779045863
#827717	#C0CA33	#DCE775	#F9FBE7	#004D40	#000000	#4DB6AC	#E0F2F1	lime	teal	l_up	clr2	high	right	#009688	#00897B	#00897B	#4DB6AC	NA	NA	NA	NA	NA	0	77	77	63	NA	NA	NA	right	1	0.485244808520656	aad	1	2026-06-01_15h42.29.354	MCT	2023.1.0	60.13062779045863
#1B5E20	#E8F5E9	#43A047	#81C784	#006064	#000000	#00ACC1	#4DD0E1	green	cyan	l_rand2	clr2	high	left	#E0F7FA	#B2EBF2	#E0F7FA	#00ACC1	NA	NA	NA	NA	NA	0	78	78	42	NA	NA	NA	right	0	1.44750664279563	aad	1	2026-06-01_15h42.29.355	MCT	2023.1.0	60.13062779045863
#E65100	#FB8C00	#FFB74D	#FFF3E0	#1A237E	#3949AB	#000000	#E8EAF6	orange	indigo	l_up	clr3	low	right	#3F51B5	#7986CB	#3949AB	#7986CB	NA	NA	NA	NA	NA	0	79	79	79	NA	NA	NA	right	1	0.434017719246913	aad	1	2026-06-01_15h42.29.356	MCT	2023.1.0	60.13062779045863
#FDD835	#F57F17	#FFFDE7	#FFF176	#FFB300	#FF6F00	#000000	#FFD54F	yellow	amber	l_rand1	clr3	none	left	#FFF8E1	#F9FBE7	#FF6F00	#FFF8E1	NA	NA	NA	NA	NA	0	80	80	95	NA	NA	NA	left	1	2.06470856351079	aad	1	2026-06-01_15h42.29.357	MCT	2023.1.0	60.13062779045863
#4A148C	#8E24AA	#BA68C8	#F3E5F5	#0D47A1	#000000	#64B5F6	#E3F2FD	purple	blue	l_up	clr2	high	left	#1E88E5	#2196F3	#1E88E5	#64B5F6	NA	NA	NA	NA	NA	0	81	81	60	NA	NA	NA	left	1	1.20628671118757	aad	1	2026-06-01_15h42.29.358	MCT	2023.1.0	60.13062779045863
#1B5E20	#E8F5E9	#43A047	#81C784	#006064	#000000	#00ACC1	#4DD0E1	green	cyan	l_rand2	clr2	none	left	#E0F7FA	#E8F5E9	#E0F7FA	#00ACC1	NA	NA	NA	NA	NA	0	82	82	102	NA	NA	NA	left	1	0.21332915922394	aad	1	2026-06-01_15h42.29.359	MCT	2023.1.0	60.13062779045863
#FFFDE7	#FFF176	#FDD835	#F57F17	#E0F7FA	#4DD0E1	#000000	#006064	yellow	cyan	l_down	clr3	high	left	#00ACC1	#00BCD4	#4DD0E1	#00ACC1	NA	NA	NA	NA	NA	0	83	83	11	NA	NA	NA	left	0	0.467249308351893	aad	1	2026-06-01_15h42.29.360	MCT	2023.1.0	60.13062779045863
#4A148C	#F3E5F5	#8E24AA	#BA68C8	#827717	#F9FBE7	#000000	#DCE775	purple	lime	l_rand2	clr3	low	left	#C0CA33	#D4E157	#F9FBE7	#C0CA33	NA	NA	NA	NA	NA	0	84	84	55	NA	NA	NA	left	1	0.986559000296984	aad	1	2026-06-01_15h42.29.361	MCT	2023.1.0	60.13062779045863
#FCE4EC	#F06292	#D81B60	#880E4F	#FBE9E7	#000000	#F4511E	#BF360C	pink	d_orange	l_down	clr2	high	right	#FFAB91	#FF8A65	#FF8A65	#F4511E	NA	NA	NA	NA	NA	0	85	85	4	NA	NA	NA	None	0	1.28952799374238	aad	1	2026-06-01_15h42.29.362	MCT	2023.1.0	60.13062779045863
#880E4F	#FCE4EC	#D81B60	#F06292	#33691E	#000000	#7CB342	#AED581	pink	l_green	l_rand2	clr2	high	left	#F1F8E9	#DCEDC8	#F1F8E9	#7CB342	NA	NA	NA	NA	NA	0	86	86	40	NA	NA	NA	left	1	1.74586063366151	aad	1	2026-06-01_15h42.29.363	MCT	2023.1.0	60.13062779045863
#EFEBE9	#A1887F	#6D4C41	#3E2723	#E8F5E9	#000000	#43A047	#1B5E20	brown	green	l_down	clr2	none	left	#81C784	#4DD0E1	#81C784	#43A047	NA	NA	NA	NA	NA	0	87	87	82	NA	NA	NA	left	1	0.566942841687706	aad	1	2026-06-01_15h42.29.364	MCT	2023.1.0	60.13062779045863
#FFFDE7	#FFF176	#FDD835	#F57F17	#E0F7FA	#4DD0E1	#000000	#006064	yellow	cyan	l_down	clr3	none	left	#00ACC1	#1E88E5	#4DD0E1	#00ACC1	NA	NA	NA	NA	NA	0	88	88	87	NA	NA	NA	left	0	0.385563896119129	aad	1	2026-06-01_15h42.29.365	MCT	2023.1.0	60.13062779045863
#FBE9E7	#FF8A65	#F4511E	#BF360C	#F3E5F5	#BA68C8	#000000	#4A148C	d_orange	purple	l_down	clr3	low	right	#6A1B9A	#8E24AA	#BA68C8	#8E24AA	NA	NA	NA	NA	NA	0	89	89	19	NA	NA	NA	right	1	0.448462063993793	aad	1	2026-06-01_15h42.29.366	MCT	2023.1.0	60.13062779045863
#B71C1C	#FFEBEE	#E53935	#E57373	#1A237E	#E8EAF6	#000000	#7986CB	red	indigo	l_rand2	clr3	high	right	#303F9F	#3949AB	#E8EAF6	#3949AB	NA	NA	NA	NA	NA	0	90	90	50	NA	NA	NA	right	0	0.860994430852588	aad	1	2026-06-01_15h42.29.367	MCT	2023.1.0	60.13062779045863
#EDE7F6	#9575CD	#5E35B1	#311B92	#FFF8E1	#000000	#FFB300	#FF6F00	d_purple	amber	l_down	clr2	low	right	#FFC107	#FFD54F	#FFD54F	#FFB300	NA	NA	NA	NA	NA	0	91	91	8	NA	NA	NA	right	0	0.59189175470965	aad	1	2026-06-01_15h42.29.368	MCT	2023.1.0	60.13062779045863
#311B92	#5E35B1	#9575CD	#EDE7F6	#1B5E20	#000000	#81C784	#E8F5E9	d_purple	green	l_up	clr2	none	right	#C0CA33	#43A047	#43A047	#81C784	NA	NA	NA	NA	NA	0	92	92	112	NA	NA	NA	right	1	0.94545639626449	aad	1	2026-06-01_15h42.29.369	MCT	2023.1.0	60.13062779045863
#FDD835	#F57F17	#FFFDE7	#FFF176	#F4511E	#000000	#FBE9E7	#FF8A65	yellow	d_orange	l_rand1	clr2	low	right	#E64A19	#BF360C	#BF360C	#FBE9E7	NA	NA	NA	NA	NA	0	93	93	28	NA	NA	NA	right	1	1.56164745636052	aad	1	2026-06-01_15h42.29.370	MCT	2023.1.0	60.13062779045863
#FF6F00	#FFF8E1	#FFB300	#FFD54F	#880E4F	#000000	#D81B60	#F06292	amber	pink	l_rand2	clr2	none	left	#FCE4EC	#EDE7F6	#FCE4EC	#D81B60	NA	NA	NA	NA	NA	0	94	94	103	NA	NA	NA	left	0	1.59710371416295	aad	1	2026-06-01_15h42.29.371	MCT	2023.1.0	60.13062779045863
#8E24AA	#4A148C	#F3E5F5	#BA68C8	#5E35B1	#000000	#EDE7F6	#9575CD	purple	d_purple	l_rand1	clr2	none	left	#311B92	#880E4F	#311B92	#EDE7F6	NA	NA	NA	NA	NA	0	95	95	90	NA	NA	NA	left	1	0.283314542484004	aad	1	2026-06-01_15h42.29.372	MCT	2023.1.0	60.13062779045863
#FB8C00	#E65100	#FFF3E0	#FFB74D	#FDD835	#000000	#FFFDE7	#FFF176	orange	yellow	l_rand1	clr2	none	left	#F57F17	#33691E	#F57F17	#FFFDE7	NA	NA	NA	NA	NA	0	96	96	93	NA	NA	NA	left	1	0.875723066541832	aad	1	2026-06-01_15h42.29.373	MCT	2023.1.0	60.13062779045863
#43A047	#1B5E20	#E8F5E9	#81C784	#00897B	#004D40	#000000	#4DB6AC	green	teal	l_rand1	clr3	none	right	#E1F5FE	#E0F2F1	#004D40	#E0F2F1	NA	NA	NA	NA	NA	0	97	97	98	NA	NA	NA	left	0	0.375965836073738	aad	1	2026-06-01_15h42.29.374	MCT	2023.1.0	60.13062779045863
#3E2723	#EFEBE9	#6D4C41	#A1887F	#0D47A1	#E3F2FD	#000000	#64B5F6	brown	blue	l_rand2	clr3	none	right	#5E35B1	#1E88E5	#E3F2FD	#1E88E5	NA	NA	NA	NA	NA	0	98	98	109	NA	NA	NA	right	1	0.826152626762632	aad	1	2026-06-01_15h42.29.375	MCT	2023.1.0	60.13062779045863
#1E88E5	#0D47A1	#E3F2FD	#64B5F6	#C0CA33	#827717	#000000	#DCE775	blue	lime	l_rand1	clr3	none	right	#E8F5E9	#F9FBE7	#827717	#F9FBE7	NA	NA	NA	NA	NA	0	99	99	97	NA	NA	NA	right	1	0.367736340139527	aad	1	2026-06-01_15h42.29.376	MCT	2023.1.0	60.13062779045863
#F3E5F5	#BA68C8	#8E24AA	#4A148C	#E0F2F1	#000000	#00897B	#004D40	purple	lime	l_down	clr2	low	left	#4DB6AC	#B2DFDB	#4DB6AC	#00897B	NA	NA	NA	NA	NA	0	100	100	6	NA	NA	NA	left	0	0.528856016800273	aad	1	2026-06-01_15h42.29.377	MCT	2023.1.0	60.13062779045863
#004D40	#E0F2F1	#00897B	#4DB6AC	#3E2723	#EFEBE9	#000000	#A1887F	teal	brown	l_rand2	clr3	high	right	#5D4037	#6D4C41	#EFEBE9	#6D4C41	NA	NA	NA	NA	NA	0	101	101	52	NA	NA	NA	right	1	0.955161185527686	aad	1	2026-06-01_15h42.29.378	MCT	2023.1.0	60.13062779045863
#3949AB	#1A237E	#E8EAF6	#7986CB	#FB8C00	#000000	#FFF3E0	#FFB74D	indigo	orange	l_rand1	clr2	low	right	#F57C00	#E65100	#E65100	#FFF3E0	NA	NA	NA	NA	NA	0	102	102	26	NA	NA	NA	right	1	0.311558719503228	aad	1	2026-06-01_15h42.29.379	MCT	2023.1.0	60.13062779045863
#0D47A1	#1E88E5	#64B5F6	#E3F2FD	#FF6F00	#FFB300	#000000	#FFF8E1	blue	amber	l_up	clr3	low	right	#FFC107	#FFD54F	#FFB300	#FFD54F	NA	NA	NA	NA	NA	0	103	103	77	NA	NA	NA	right	0	0.785782122390811	aad	1	2026-06-01_15h42.29.380	MCT	2023.1.0	60.13062779045863
#E65100	#FB8C00	#FFB74D	#FFF3E0	#0D47A1	#1E88E5	#000000	#E3F2FD	orange	blue	l_up	clr3	none	left	#64B5F6	#4DD0E1	#1E88E5	#64B5F6	NA	NA	NA	NA	NA	0	104	104	117	NA	NA	NA	left	1	1.60945423425874	aad	1	2026-06-01_15h42.29.381	MCT	2023.1.0	60.13062779045863
#01579B	#039BE5	#4FC3F7	#E1F5FE	#F57F17	#FDD835	#000000	#FFFDE7	l_blue	yellow	l_up	clr3	none	left	#FFF176	#AED581	#FDD835	#FFF176	NA	NA	NA	NA	NA	0	105	105	116	NA	NA	NA	left	1	0.907416371896398	aad	1	2026-06-01_15h42.29.382	MCT	2023.1.0	60.13062779045863
#E3F2FD	#64B5F6	#1E88E5	#0D47A1	#E0F2F1	#4DB6AC	#000000	#004D40	blue	teal	l_down	clr3	none	right	#7CB342	#00897B	#4DB6AC	#00897B	NA	NA	NA	NA	NA	0	106	106	88	NA	NA	NA	right	0	0.718826608022209	aad	1	2026-06-01_15h42.29.383	MCT	2023.1.0	60.13062779045863
#1B5E20	#43A047	#81C784	#E8F5E9	#4A148C	#000000	#BA68C8	#F3E5F5	green	purple	l_up	clr2	low	right	#6A1B9A	#8E24AA	#8E24AA	#BA68C8	NA	NA	NA	NA	NA	0	107	107	69	NA	NA	NA	left	0	1.55668065698119	aad	1	2026-06-01_15h42.29.384	MCT	2023.1.0	60.13062779045863
#0D47A1	#E3F2FD	#1E88E5	#64B5F6	#4A148C	#000000	#8E24AA	#BA68C8	blue	purple	l_rand2	clr2	none	left	#F3E5F5	#FFEBEE	#F3E5F5	#8E24AA	NA	NA	NA	NA	NA	0	108	108	101	NA	NA	NA	left	1	0.851567175833043	aad	1	2026-06-01_15h42.29.385	MCT	2023.1.0	60.13062779045863
#F57F17	#FFFDE7	#FDD835	#FFF176	#BF360C	#FBE9E7	#000000	#FF8A65	yellow	d_orange	l_rand2	clr3	high	right	#FF5722	#F4511E	#FBE9E7	#F4511E	NA	NA	NA	NA	NA	0	109	109	53	NA	NA	NA	left	0	0.496123239526059	aad	1	2026-06-01_15h42.29.386	MCT	2023.1.0	60.13062779045863
#FFB300	#FF6F00	#FFF8E1	#FFD54F	#039BE5	#01579B	#000000	#4FC3F7	amber	l_blue	l_rand1	clr3	high	right	#B3E5FC	#E1F5FE	#01579B	#E1F5FE	NA	NA	NA	NA	NA	0	110	110	34	NA	NA	NA	right	1	0.621380707004573	aad	1	2026-06-01_15h42.29.387	MCT	2023.1.0	60.13062779045863
#00ACC1	#006064	#E0F7FA	#4DD0E1	#43A047	#1B5E20	#000000	#81C784	cyan	green	l_rand1	clr3	low	left	#E8F5E9	#A5D6A7	#1B5E20	#E8F5E9	NA	NA	NA	NA	NA	0	111	111	36	NA	NA	NA	left	1	0.708648735668976	aad	1	2026-06-01_15h42.29.388	MCT	2023.1.0	60.13062779045863
#BF360C	#F4511E	#FF8A65	#FBE9E7	#33691E	#7CB342	#000000	#F1F8E9	d_orange	l_green	l_up	clr3	none	right	#FFF176	#AED581	#7CB342	#AED581	NA	NA	NA	NA	NA	0	112	112	119	NA	NA	NA	right	0	0.691350680950563	aad	1	2026-06-01_15h42.29.389	MCT	2023.1.0	60.13062779045863
#F3E5F5	#BA68C8	#8E24AA	#4A148C	#FBE9E7	#FFB74D	#000000	#BF360C	purple	d_orange	l_down	clr3	low	left	#F4511E	#D84315	#FF8A65	#F4511E	NA	NA	NA	NA	NA	0	113	113	16	NA	NA	NA	left	1	1.12085865844274	aad	1	2026-06-01_15h42.29.390	MCT	2023.1.0	60.13062779045863
#E8EAF6	#7986CB	#3949AB	#1A237E	#FFF3E0	#FFB74D	#000000	#E65100	indigo	orange	l_down	clr3	none	left	#FB8C00	#E53935	#FFB74D	#FB8C00	NA	NA	NA	NA	NA	0	114	114	86	NA	NA	NA	left	1	0.41502627619775	aad	1	2026-06-01_15h42.29.391	MCT	2023.1.0	60.13062779045863
#EFEBE9	#A1887F	#6D4C41	#3E2723	#E8F5E9	#000000	#43A047	#1B5E20	brown	green	l_down	clr2	high	left	#81C784	#A5D6A7	#81C784	#43A047	NA	NA	NA	NA	NA	0	115	115	2	NA	NA	NA	left	1	1.09150460549863	aad	1	2026-06-01_15h42.29.392	MCT	2023.1.0	60.13062779045863
#827717	#C0CA33	#DCE775	#F9FBE7	#004D40	#000000	#4DB6AC	#E0F2F1	lime	teal	l_up	clr2	none	right	#039BE5	#00897B	#00897B	#4DB6AC	NA	NA	NA	NA	NA	0	116	116	113	NA	NA	NA	right	1	0.991707753005903	aad	1	2026-06-01_15h42.29.393	MCT	2023.1.0	60.13062779045863
#43A047	#1B5E20	#E8F5E9	#81C784	#00897B	#004D40	#000000	#4DB6AC	green	teal	l_rand1	clr3	high	right	#B2DFDB	#E0F2F1	#004D40	#E0F2F1	NA	NA	NA	NA	NA	0	117	117	33	NA	NA	NA	left	0	0.74143587484723	aad	1	2026-06-01_15h42.29.394	MCT	2023.1.0	60.13062779045863
#D81B60	#880E4F	#FCE4EC	#F06292	#FDD835	#F57F17	#000000	#FFF176	pink	yellow	l_rand1	clr3	high	right	#FFF9C4	#FFFDE7	#F57F17	#FFFDE7	NA	NA	NA	NA	NA	0	118	118	31	NA	NA	NA	right	1	1.26527889067074	aad	1	2026-06-01_15h42.29.395	MCT	2023.1.0	60.13062779045863
#1A237E	#E8EAF6	#3949AB	#7986CB	#01579B	#E1F5FE	#000000	#4FC3F7	indigo	l_blue	l_rand2	clr3	high	right	#03A9F4	#039BE5	#E1F5FE	#039BE5	NA	NA	NA	NA	NA	0	119	119	51	NA	NA	NA	right	1	1.05275718719931	aad	1	2026-06-01_15h42.29.396	MCT	2023.1.0	60.13062779045863
