sequence	training_session.thisRepN	training_session.thisTrialN	training_session.thisN	training_session.thisIndex	training_2n.thisRepN	training_2n.thisTrialN	training_2n.thisN	training_2n.thisIndex	training_3n.thisRepN	training_3n.thisTrialN	training_3n.thisN	training_3n.thisIndex	training_4n.thisRepN	training_4n.thisTrialN	training_4n.thisN	training_4n.thisIndex	allrep_2nback.thisRepN	allrep_2nback.thisTrialN	allrep_2nback.thisN	allrep_2nback.thisIndex	trials_2nback.thisRepN	trials_2nback.thisTrialN	trials_2nback.thisN	trials_2nback.thisIndex	allrep_3nback.thisRepN	allrep_3nback.thisTrialN	allrep_3nback.thisN	allrep_3nback.thisIndex	trials_3nback.thisRepN	trials_3nback.thisTrialN	trials_3nback.thisN	trials_3nback.thisIndex	allrep_4nback.thisRepN	allrep_4nback.thisTrialN	allrep_4nback.thisN	allrep_4nback.thisIndex	trials_4nback.thisRepN	trials_4nback.thisTrialN	trials_4nback.thisN	trials_4nback.thisIndex	buffer02_txt.started	test_griddot_resp2.started	test_griddot_resp2.keys	buffer23_txt.started	test_griddot_resp3.started	test_griddot_resp3.keys	buffer34_txt.started	test_griddot_resp4.started	test_griddot_resp4.keys	confirm_resp.started	confirm_resp.keys	confirm_resp.rt	instr_text_2.started	buffer02_txt.stopped	griddot_resp2.started	griddot_resp2.keys	griddot_resp2.rt	griddot_resp3.started	griddot_resp3.keys	griddot_resp3.rt	griddot_resp4.started	griddot_resp4.keys	griddot_resp4.rt	participant	session	date	expName	psychopyVersion	frameRate	...71
[(0, 2), (2, 0), (0, 2), (2, 0), (1, 0), (0, 1), (0, 2), (2, 0)]	0	0	0	0	0	0	0	382	NA	NA	NA	NA	NA	NA	NA	NA	NA	NA	NA	NA	NA	NA	NA	NA	NA	NA	NA	NA	NA	NA	NA	NA	NA	NA	NA	NA	NA	NA	NA	NA	23.221621899865568	27.3334774998948	None	NA	NA	NA	NA	NA	NA	NA	NA	NA	NA	NA	NA	NA	NA	NA	NA	NA	NA	NA	NA	ped	001	2026-04-28_16h04.26.819	SS	2023.1.0	59.75750406640737	NA
[(2, 0), (2, 2), (0, 0), (0, 1), (0, 0), (2, 0), (0, 0), (0, 2)]	0	0	0	0	0	1	1	323	NA	NA	NA	NA	NA	NA	NA	NA	NA	NA	NA	NA	NA	NA	NA	NA	NA	NA	NA	NA	NA	NA	NA	NA	NA	NA	NA	NA	NA	NA	NA	NA	NA	44.2659824998118	None	NA	NA	NA	NA	NA	NA	NA	NA	NA	NA	NA	NA	NA	NA	NA	NA	NA	NA	NA	NA	ped	001	2026-04-28_16h04.26.819	SS	2023.1.0	59.75750406640737	NA
[(2, 0), (1, 1), (2, 0), (1, 1), (1, 1), (1, 0), (2, 2), (1, 2)]	0	0	0	0	0	2	2	466	NA	NA	NA	NA	NA	NA	NA	NA	NA	NA	NA	NA	NA	NA	NA	NA	NA	NA	NA	NA	NA	NA	NA	NA	NA	NA	NA	NA	NA	NA	NA	NA	NA	61.278576700016856	None	NA	NA	NA	NA	NA	NA	NA	NA	NA	NA	NA	NA	NA	NA	NA	NA	NA	NA	NA	NA	ped	001	2026-04-28_16h04.26.819	SS	2023.1.0	59.75750406640737	NA
[(0, 1), (0, 0), (1, 1), (0, 1), (2, 0), (0, 1), (0, 1), (1, 1), (2, 0)]	0	0	0	0	NA	NA	NA	NA	0	0	0	158	NA	NA	NA	NA	NA	NA	NA	NA	NA	NA	NA	NA	NA	NA	NA	NA	NA	NA	NA	NA	NA	NA	NA	NA	NA	NA	NA	NA	NA	NA	NA	78.21369299991056	82.2763099996373	None	NA	NA	NA	NA	NA	NA	NA	NA	NA	NA	NA	NA	NA	NA	NA	NA	NA	ped	001	2026-04-28_16h04.26.819	SS	2023.1.0	59.75750406640737	NA
[(0, 2), (2, 2), (2, 2), (1, 2), (2, 2), (2, 2), (1, 1), (0, 2), (2, 1)]	0	0	0	0	NA	NA	NA	NA	0	1	1	643	NA	NA	NA	NA	NA	NA	NA	NA	NA	NA	NA	NA	NA	NA	NA	NA	NA	NA	NA	NA	NA	NA	NA	NA	NA	NA	NA	NA	NA	NA	NA	NA	101.28924539964646	None	NA	NA	NA	NA	NA	NA	NA	NA	NA	NA	NA	NA	NA	NA	NA	NA	NA	ped	001	2026-04-28_16h04.26.819	SS	2023.1.0	59.75750406640737	NA
[(2, 1), (1, 2), (0, 1), (2, 1), (2, 0), (1, 1), (2, 1), (0, 2), (0, 1)]	0	0	0	0	NA	NA	NA	NA	0	2	2	293	NA	NA	NA	NA	NA	NA	NA	NA	NA	NA	NA	NA	NA	NA	NA	NA	NA	NA	NA	NA	NA	NA	NA	NA	NA	NA	NA	NA	NA	NA	NA	NA	120.30469579994678	None	NA	NA	NA	NA	NA	NA	NA	NA	NA	NA	NA	NA	NA	NA	NA	NA	NA	ped	001	2026-04-28_16h04.26.819	SS	2023.1.0	59.75750406640737	NA
[(0, 1), (2, 1), (1, 1), (2, 2), (0, 1), (0, 2), (0, 0), (2, 2), (2, 0), (1, 0)]	0	0	0	0	NA	NA	NA	NA	NA	NA	NA	NA	0	0	0	49	NA	NA	NA	NA	NA	NA	NA	NA	NA	NA	NA	NA	NA	NA	NA	NA	NA	NA	NA	NA	NA	NA	NA	NA	NA	NA	NA	NA	NA	NA	139.22126009967178	143.28584669996053	None	NA	NA	NA	NA	NA	NA	NA	NA	NA	NA	NA	NA	NA	NA	ped	001	2026-04-28_16h04.26.819	SS	2023.1.0	59.75750406640737	NA
[(1, 2), (2, 0), (1, 1), (1, 1), (1, 2), (1, 1), (2, 0), (2, 1), (2, 0), (1, 1)]	0	0	0	0	NA	NA	NA	NA	NA	NA	NA	NA	0	1	1	657	NA	NA	NA	NA	NA	NA	NA	NA	NA	NA	NA	NA	NA	NA	NA	NA	NA	NA	NA	NA	NA	NA	NA	NA	NA	NA	NA	NA	NA	NA	NA	164.26721049984917	None	NA	NA	NA	NA	NA	NA	NA	NA	NA	NA	NA	NA	NA	NA	ped	001	2026-04-28_16h04.26.819	SS	2023.1.0	59.75750406640737	NA
[(1, 1), (0, 0), (2, 1), (0, 1), (0, 1), (0, 0), (2, 0), (1, 2), (0, 1), (2, 0)]	0	0	0	0	NA	NA	NA	NA	NA	NA	NA	NA	0	2	2	282	NA	NA	NA	NA	NA	NA	NA	NA	NA	NA	NA	NA	NA	NA	NA	NA	NA	NA	NA	NA	NA	NA	NA	NA	NA	NA	NA	NA	NA	NA	NA	185.2785736997612	None	NA	NA	NA	NA	NA	NA	NA	NA	NA	NA	NA	NA	NA	NA	ped	001	2026-04-28_16h04.26.819	SS	2023.1.0	59.75750406640737	NA
NA	0	0	0	0	NA	NA	NA	NA	NA	NA	NA	NA	NA	NA	NA	NA	NA	NA	NA	NA	NA	NA	NA	NA	NA	NA	NA	NA	NA	NA	NA	NA	NA	NA	NA	NA	NA	NA	NA	NA	NA	NA	NA	NA	NA	NA	NA	NA	NA	205.2266196999699	y	10.234269400592892	NA	NA	NA	NA	NA	NA	NA	NA	NA	NA	NA	ped	001	2026-04-28_16h04.26.819	SS	2023.1.0	59.75750406640737	NA
[(2, 0), (2, 1), (2, 0), (1, 1), (2, 0), (0, 1), (2, 1), (1, 0)]	NA	NA	NA	NA	NA	NA	NA	NA	NA	NA	NA	NA	NA	NA	NA	NA	0	0	0	0	0	0	0	63	NA	NA	NA	NA	NA	NA	NA	NA	NA	NA	NA	NA	NA	NA	NA	NA	216.49226359976456	NA	NA	NA	NA	NA	NA	NA	NA	NA	NA	NA	215.47901170002297	219.54295999975875	220.57310079969463	['right', 'left', 'right', 'left', 'left', 'left']	[4.731517500244081, 6.714562100358307, 8.62084580026567, 10.446229600347579, 12.530298500321805, 14.632711100392044]	NA	NA	NA	NA	NA	NA	ped	001	2026-04-28_16h04.26.819	SS	2023.1.0	59.75750406640737	NA
[(2, 0), (1, 1), (2, 0), (2, 1), (0, 0), (0, 0), (0, 0), (0, 1)]	NA	NA	NA	NA	NA	NA	NA	NA	NA	NA	NA	NA	NA	NA	NA	NA	0	0	0	0	0	1	1	308	NA	NA	NA	NA	NA	NA	NA	NA	NA	NA	NA	NA	NA	NA	NA	NA	NA	NA	NA	NA	NA	NA	NA	NA	NA	NA	NA	NA	NA	NA	237.57147930003703	['right', 'left', 'left', 'left', 'right', 'left']	[4.68268070043996, 6.538337400648743, 8.798254300374538, 10.911071500740945, 12.592075100634247, 14.642329800408334]	NA	NA	NA	NA	NA	NA	ped	001	2026-04-28_16h04.26.819	SS	2023.1.0	59.75750406640737	NA
[(2, 0), (2, 0), (2, 0), (2, 0), (1, 1), (1, 1), (1, 1), (2, 2)]	NA	NA	NA	NA	NA	NA	NA	NA	NA	NA	NA	NA	NA	NA	NA	NA	0	0	0	0	0	2	2	310	NA	NA	NA	NA	NA	NA	NA	NA	NA	NA	NA	NA	NA	NA	NA	NA	NA	NA	NA	NA	NA	NA	NA	NA	NA	NA	NA	NA	NA	NA	254.58619860000908	['right', 'right', 'left', 'left', 'right', 'left']	[4.858363600447774, 6.5412512007169425, 8.712373800575733, 10.630086700432003, 12.452362500596792, 14.551881600636989]	NA	NA	NA	NA	NA	NA	ped	001	2026-04-28_16h04.26.819	SS	2023.1.0	59.75750406640737	NA
[(1, 0), (2, 0), (2, 0), (0, 2), (2, 0), (0, 2), (0, 2), (2, 0)]	NA	NA	NA	NA	NA	NA	NA	NA	NA	NA	NA	NA	NA	NA	NA	NA	0	0	0	0	0	3	3	37	NA	NA	NA	NA	NA	NA	NA	NA	NA	NA	NA	NA	NA	NA	NA	NA	NA	NA	NA	NA	NA	NA	NA	NA	NA	NA	NA	NA	NA	NA	271.53568199975416	['right', 'left', 'right', 'right', 'left', 'right']	[4.6346505004912615, 6.772478200495243, 8.560260200407356, 10.631084800232202, 12.63979750033468, 14.569747200235724]	NA	NA	NA	NA	NA	NA	ped	001	2026-04-28_16h04.26.819	SS	2023.1.0	59.75750406640737	NA
[(2, 2), (1, 0), (2, 2), (0, 2), (2, 2), (0, 2), (1, 0), (2, 0)]	NA	NA	NA	NA	NA	NA	NA	NA	NA	NA	NA	NA	NA	NA	NA	NA	0	0	0	0	0	4	4	16	NA	NA	NA	NA	NA	NA	NA	NA	NA	NA	NA	NA	NA	NA	NA	NA	NA	NA	NA	NA	NA	NA	NA	NA	NA	NA	NA	NA	NA	NA	288.54794469987974	['right', 'left', 'right', 'right', 'left', 'left']	[4.615523600019515, 6.540316800121218, 8.750462800264359, 10.786180400289595, 12.849558800458908, 14.641372100450099]	NA	NA	NA	NA	NA	NA	ped	001	2026-04-28_16h04.26.819	SS	2023.1.0	59.75750406640737	NA
[(1, 0), (1, 1), (0, 0), (1, 1), (2, 2), (1, 1), (1, 2), (0, 0)]	NA	NA	NA	NA	NA	NA	NA	NA	NA	NA	NA	NA	NA	NA	NA	NA	0	0	0	0	0	5	5	654	NA	NA	NA	NA	NA	NA	NA	NA	NA	NA	NA	NA	NA	NA	NA	NA	NA	NA	NA	NA	NA	NA	NA	NA	NA	NA	NA	NA	NA	NA	305.5610952996649	['left', 'right', 'left', 'right', 'left', 'left']	[4.501843300182372, 6.6463997000828385, 8.518813000060618, 10.519638900179416, 12.534822300076485, 14.474389600101858]	NA	NA	NA	NA	NA	NA	ped	001	2026-04-28_16h04.26.819	SS	2023.1.0	59.75750406640737	NA
NA	NA	NA	NA	NA	NA	NA	NA	NA	NA	NA	NA	NA	NA	NA	NA	NA	0	0	0	0	NA	NA	NA	NA	NA	NA	NA	NA	NA	NA	NA	NA	NA	NA	NA	NA	NA	NA	NA	NA	NA	NA	NA	NA	NA	NA	NA	NA	NA	NA	NA	NA	NA	NA	NA	NA	NA	NA	NA	NA	NA	NA	NA	ped	001	2026-04-28_16h04.26.819	SS	2023.1.0	59.75750406640737	NA
[(2, 2), (2, 1), (2, 2), (2, 1), (2, 1), (2, 2), (0, 0), (1, 2)]	NA	NA	NA	NA	NA	NA	NA	NA	NA	NA	NA	NA	NA	NA	NA	NA	1	0	1	0	0	0	0	23	NA	NA	NA	NA	NA	NA	NA	NA	NA	NA	NA	NA	NA	NA	NA	NA	NA	NA	NA	NA	NA	NA	NA	NA	NA	NA	NA	NA	NA	NA	323.90926529979333	['right', 'left', 'left', 'left', 'left', 'left']	[4.922328800428659, 6.666509500239044, 8.664925100281835, 10.652565200347453, 12.713750300463289, 14.612386300228536]	NA	NA	NA	NA	NA	NA	ped	001	2026-04-28_16h04.26.819	SS	2023.1.0	59.75750406640737	NA
[(0, 1), (1, 2), (0, 1), (0, 2), (2, 2), (2, 1), (2, 2), (2, 0)]	NA	NA	NA	NA	NA	NA	NA	NA	NA	NA	NA	NA	NA	NA	NA	NA	1	0	1	0	0	1	1	237	NA	NA	NA	NA	NA	NA	NA	NA	NA	NA	NA	NA	NA	NA	NA	NA	NA	NA	NA	NA	NA	NA	NA	NA	NA	NA	NA	NA	NA	NA	340.8746433998458	['right', 'left', 'left', 'left', 'right', 'left']	[4.835763200186193, 6.549752300139517, 8.557923500426114, 10.530774500221014, 12.532711000181735, 14.601203600410372]	NA	NA	NA	NA	NA	NA	ped	001	2026-04-28_16h04.26.819	SS	2023.1.0	59.75750406640737	NA
[(2, 1), (2, 0), (1, 2), (2, 0), (0, 1), (2, 0), (0, 0), (0, 0)]	NA	NA	NA	NA	NA	NA	NA	NA	NA	NA	NA	NA	NA	NA	NA	NA	1	0	1	0	0	2	2	30	NA	NA	NA	NA	NA	NA	NA	NA	NA	NA	NA	NA	NA	NA	NA	NA	NA	NA	NA	NA	NA	NA	NA	NA	NA	NA	NA	NA	NA	NA	357.92258569970727	['left', 'right', 'left', 'right', 'left', 'right']	[4.493527400307357, 6.716729700565338, 8.531707500573248, 10.564893200527877, 12.488720800261945, 14.601935500279069]	NA	NA	NA	NA	NA	NA	ped	001	2026-04-28_16h04.26.819	SS	2023.1.0	59.75750406640737	NA
[(2, 1), (0, 0), (0, 0), (1, 0), (0, 0), (1, 0), (0, 2), (2, 2)]	NA	NA	NA	NA	NA	NA	NA	NA	NA	NA	NA	NA	NA	NA	NA	NA	1	0	1	0	0	3	3	344	NA	NA	NA	NA	NA	NA	NA	NA	NA	NA	NA	NA	NA	NA	NA	NA	NA	NA	NA	NA	NA	NA	NA	NA	NA	NA	NA	NA	NA	NA	374.91871189977974	['left', 'left', 'right', 'right', 'left', 'left']	[4.950901200063527, 6.570811199955642, 8.567807800136507, 10.629053300246596, 12.514857500325888, 14.488968700170517]	NA	NA	NA	NA	NA	NA	ped	001	2026-04-28_16h04.26.819	SS	2023.1.0	59.75750406640737	NA
[(2, 2), (0, 1), (2, 1), (0, 1), (1, 2), (2, 1), (1, 2), (1, 0)]	NA	NA	NA	NA	NA	NA	NA	NA	NA	NA	NA	NA	NA	NA	NA	NA	1	0	1	0	0	4	4	110	NA	NA	NA	NA	NA	NA	NA	NA	NA	NA	NA	NA	NA	NA	NA	NA	NA	NA	NA	NA	NA	NA	NA	NA	NA	NA	NA	NA	NA	NA	391.9193114996888	['left', 'right', 'left', 'left', 'right', 'left']	[4.731330000329763, 6.465566700324416, 8.644922500476241, 10.704210200347006, 12.710879900492728, 14.569468900561333]	NA	NA	NA	NA	NA	NA	ped	001	2026-04-28_16h04.26.819	SS	2023.1.0	59.75750406640737	NA
[(2, 1), (0, 0), (2, 1), (0, 1), (2, 1), (1, 1), (2, 2), (1, 0)]	NA	NA	NA	NA	NA	NA	NA	NA	NA	NA	NA	NA	NA	NA	NA	NA	1	0	1	0	0	5	5	24	NA	NA	NA	NA	NA	NA	NA	NA	NA	NA	NA	NA	NA	NA	NA	NA	NA	NA	NA	NA	NA	NA	NA	NA	NA	NA	NA	NA	NA	NA	408.88243329990655	['left', 'left', 'right', 'left', 'left', 'left']	[4.585622700396925, 6.480038200505078, 8.40269310027361, 10.69828260038048, 12.812245400156826, 14.790235200431198]	NA	NA	NA	NA	NA	NA	ped	001	2026-04-28_16h04.26.819	SS	2023.1.0	59.75750406640737	NA
NA	NA	NA	NA	NA	NA	NA	NA	NA	NA	NA	NA	NA	NA	NA	NA	NA	1	0	1	0	NA	NA	NA	NA	NA	NA	NA	NA	NA	NA	NA	NA	NA	NA	NA	NA	NA	NA	NA	NA	NA	NA	NA	NA	NA	NA	NA	NA	NA	NA	NA	NA	NA	NA	NA	NA	NA	NA	NA	NA	NA	NA	NA	ped	001	2026-04-28_16h04.26.819	SS	2023.1.0	59.75750406640737	NA
[(0, 2), (1, 0), (1, 1), (2, 0), (2, 1), (0, 0), (1, 1), (2, 1), (0, 0)]	NA	NA	NA	NA	NA	NA	NA	NA	NA	NA	NA	NA	NA	NA	NA	NA	NA	NA	NA	NA	NA	NA	NA	NA	0	0	0	0	0	0	0	504	NA	NA	NA	NA	NA	NA	NA	NA	NA	NA	NA	437.6138888997957	NA	NA	NA	NA	NA	NA	NA	NA	NA	NA	NA	NA	NA	441.65944449976087	['left', 'left', 'left', 'left', 'right', 'right']	[6.4986789003014565, 8.426604400388896, 10.559996200259775, 13.158102000132203, 14.77880180021748, 16.53835580032319]	NA	NA	NA	ped	001	2026-04-28_16h04.26.819	SS	2023.1.0	59.75750406640737	NA
[(2, 2), (2, 1), (0, 1), (2, 1), (2, 1), (1, 1), (2, 1), (2, 1), (2, 2)]	NA	NA	NA	NA	NA	NA	NA	NA	NA	NA	NA	NA	NA	NA	NA	NA	NA	NA	NA	NA	NA	NA	NA	NA	0	0	0	0	0	1	1	63	NA	NA	NA	NA	NA	NA	NA	NA	NA	NA	NA	NA	NA	NA	NA	NA	NA	NA	NA	NA	NA	NA	NA	NA	NA	460.67341100005433	['left', 'right', 'left', 'left', 'right', 'left']	[7.005105700343847, 8.700352500192821, 10.707481699995697, 13.172381800133735, 14.51640610024333, 16.62810910027474]	NA	NA	NA	ped	001	2026-04-28_16h04.26.819	SS	2023.1.0	59.75750406640737	NA
[(1, 2), (0, 0), (2, 0), (0, 0), (2, 0), (2, 0), (1, 0), (1, 0), (2, 0)]	NA	NA	NA	NA	NA	NA	NA	NA	NA	NA	NA	NA	NA	NA	NA	NA	NA	NA	NA	NA	NA	NA	NA	NA	0	0	0	0	0	2	2	398	NA	NA	NA	NA	NA	NA	NA	NA	NA	NA	NA	NA	NA	NA	NA	NA	NA	NA	NA	NA	NA	NA	NA	NA	NA	479.67072469973937	['left', 'left', 'right', 'left', 'left', 'right']	[6.731738600414246, 8.462853900156915, 10.565642400179058, 12.67552090017125, 14.454666300211102, 16.430395000148565]	NA	NA	NA	ped	001	2026-04-28_16h04.26.819	SS	2023.1.0	59.75750406640737	NA
[(2, 1), (1, 2), (1, 1), (2, 1), (0, 1), (2, 0), (1, 0), (1, 0), (2, 0)]	NA	NA	NA	NA	NA	NA	NA	NA	NA	NA	NA	NA	NA	NA	NA	NA	NA	NA	NA	NA	NA	NA	NA	NA	0	0	0	0	0	3	3	288	NA	NA	NA	NA	NA	NA	NA	NA	NA	NA	NA	NA	NA	NA	NA	NA	NA	NA	NA	NA	NA	NA	NA	NA	NA	498.66810359992087	['left', 'left', 'left', 'left', 'left', 'right']	[6.537599300034344, 8.535567700397223, 10.510943700093776, 12.657204900402576, 14.567386799957603, 16.47968320036307]	NA	NA	NA	ped	001	2026-04-28_16h04.26.819	SS	2023.1.0	59.75750406640737	NA
[(0, 1), (2, 0), (0, 1), (1, 1), (0, 2), (0, 1), (1, 0), (0, 2), (1, 1)]	NA	NA	NA	NA	NA	NA	NA	NA	NA	NA	NA	NA	NA	NA	NA	NA	NA	NA	NA	NA	NA	NA	NA	NA	0	0	0	0	0	4	4	83	NA	NA	NA	NA	NA	NA	NA	NA	NA	NA	NA	NA	NA	NA	NA	NA	NA	NA	NA	NA	NA	NA	NA	NA	NA	517.6977160000242	['left', 'left', 'right', 'left', 'right', 'left']	[6.53015820030123, 8.407256100326777, 10.513441200368106, 12.58107680035755, 14.405286100227386, 16.662748300470412]	NA	NA	NA	ped	001	2026-04-28_16h04.26.819	SS	2023.1.0	59.75750406640737	NA
[(0, 0), (2, 0), (0, 2), (0, 0), (0, 0), (0, 0), (0, 2), (2, 1), (0, 0)]	NA	NA	NA	NA	NA	NA	NA	NA	NA	NA	NA	NA	NA	NA	NA	NA	NA	NA	NA	NA	NA	NA	NA	NA	0	0	0	0	0	5	5	676	NA	NA	NA	NA	NA	NA	NA	NA	NA	NA	NA	NA	NA	NA	NA	NA	NA	NA	NA	NA	NA	NA	NA	NA	NA	536.6962699997239	['right', 'left', 'left', 'right', 'left', 'right']	[6.615063400473446, 8.722526400350034, 10.60998160066083, 12.848972600419074, 14.691197800450027, 16.55853190040216]	NA	NA	NA	ped	001	2026-04-28_16h04.26.819	SS	2023.1.0	59.75750406640737	NA
NA	NA	NA	NA	NA	NA	NA	NA	NA	NA	NA	NA	NA	NA	NA	NA	NA	NA	NA	NA	NA	NA	NA	NA	NA	0	0	0	0	NA	NA	NA	NA	NA	NA	NA	NA	NA	NA	NA	NA	NA	NA	NA	NA	NA	NA	NA	NA	NA	NA	NA	NA	NA	NA	NA	NA	NA	NA	NA	NA	NA	NA	NA	ped	001	2026-04-28_16h04.26.819	SS	2023.1.0	59.75750406640737	NA
[(2, 0), (2, 0), (1, 0), (1, 2), (2, 0), (1, 2), (2, 0), (2, 0), (1, 1)]	NA	NA	NA	NA	NA	NA	NA	NA	NA	NA	NA	NA	NA	NA	NA	NA	NA	NA	NA	NA	NA	NA	NA	NA	1	0	1	0	0	0	0	105	NA	NA	NA	NA	NA	NA	NA	NA	NA	NA	NA	NA	NA	NA	NA	NA	NA	NA	NA	NA	NA	NA	NA	NA	NA	557.3927503996529	['left', 'right', 'left', 'left', 'right', 'left']	[6.967555600218475, 8.581554400268942, 10.587762900162488, 13.103568100370467, 14.626688700169325, 16.89679490029812]	NA	NA	NA	ped	001	2026-04-28_16h04.26.819	SS	2023.1.0	59.75750406640737	NA
[(1, 2), (1, 0), (2, 1), (2, 0), (1, 0), (1, 1), (2, 0), (1, 1), (1, 2)]	NA	NA	NA	NA	NA	NA	NA	NA	NA	NA	NA	NA	NA	NA	NA	NA	NA	NA	NA	NA	NA	NA	NA	NA	1	0	1	0	0	1	1	526	NA	NA	NA	NA	NA	NA	NA	NA	NA	NA	NA	NA	NA	NA	NA	NA	NA	NA	NA	NA	NA	NA	NA	NA	NA	576.3902079998516	['left', 'right', 'left', 'right', 'left', 'left']	[6.632267200388014, 8.416221700143069, 10.502848300151527, 12.371636100113392, 14.599821200128645, 16.613397300243378]	NA	NA	NA	ped	001	2026-04-28_16h04.26.819	SS	2023.1.0	59.75750406640737	NA
[(0, 1), (0, 1), (2, 1), (1, 2), (0, 1), (0, 1), (1, 2), (1, 2), (0, 1)]	NA	NA	NA	NA	NA	NA	NA	NA	NA	NA	NA	NA	NA	NA	NA	NA	NA	NA	NA	NA	NA	NA	NA	NA	1	0	1	0	0	2	2	11	NA	NA	NA	NA	NA	NA	NA	NA	NA	NA	NA	NA	NA	NA	NA	NA	NA	NA	NA	NA	NA	NA	NA	NA	NA	595.3879410000518	['left', 'right', 'left', 'left', 'left', 'left']	[7.474838100373745, 9.06527080014348, 10.772832200396806, 12.637147300411016, 14.529201600234956, 16.468112700153142]	NA	NA	NA	ped	001	2026-04-28_16h04.26.819	SS	2023.1.0	59.75750406640737	NA
[(2, 0), (2, 2), (1, 0), (1, 2), (2, 0), (1, 0), (1, 2), (2, 1), (0, 2)]	NA	NA	NA	NA	NA	NA	NA	NA	NA	NA	NA	NA	NA	NA	NA	NA	NA	NA	NA	NA	NA	NA	NA	NA	1	0	1	0	0	3	3	568	NA	NA	NA	NA	NA	NA	NA	NA	NA	NA	NA	NA	NA	NA	NA	NA	NA	NA	NA	NA	NA	NA	NA	NA	NA	614.3688896000385	['left', 'left', 'right', 'left', 'left', 'right']	[6.445520700421184, 8.781866500154138, 10.559848900418729, 12.728332900442183, 14.67218070011586, 16.59648310020566]	NA	NA	NA	ped	001	2026-04-28_16h04.26.819	SS	2023.1.0	59.75750406640737	NA
[(2, 1), (2, 2), (1, 0), (0, 1), (0, 1), (2, 1), (0, 0), (0, 1), (2, 1)]	NA	NA	NA	NA	NA	NA	NA	NA	NA	NA	NA	NA	NA	NA	NA	NA	NA	NA	NA	NA	NA	NA	NA	NA	1	0	1	0	0	4	4	75	NA	NA	NA	NA	NA	NA	NA	NA	NA	NA	NA	NA	NA	NA	NA	NA	NA	NA	NA	NA	NA	NA	NA	NA	NA	633.399259599857	['left', 'left', 'left', 'left', 'right', 'right']	[6.534481200389564, 8.419212799984962, 10.56228130031377, 12.615906900260597, 14.373395500238985, 16.311671500094235]	NA	NA	NA	ped	001	2026-04-28_16h04.26.819	SS	2023.1.0	59.75750406640737	NA
[(0, 2), (1, 2), (1, 1), (0, 2), (1, 2), (2, 1), (0, 1), (1, 0), (2, 2)]	NA	NA	NA	NA	NA	NA	NA	NA	NA	NA	NA	NA	NA	NA	NA	NA	NA	NA	NA	NA	NA	NA	NA	NA	1	0	1	0	0	5	5	500	NA	NA	NA	NA	NA	NA	NA	NA	NA	NA	NA	NA	NA	NA	NA	NA	NA	NA	NA	NA	NA	NA	NA	NA	NA	652.3974838997237	['left', 'right', 'left', 'left', 'left', 'left']	[6.3736175005324185, 8.499764800537378, 10.866834500338882, 12.85097850067541, 14.726213200483471, 16.545047300402075]	NA	NA	NA	ped	001	2026-04-28_16h04.26.819	SS	2023.1.0	59.75750406640737	NA
NA	NA	NA	NA	NA	NA	NA	NA	NA	NA	NA	NA	NA	NA	NA	NA	NA	NA	NA	NA	NA	NA	NA	NA	NA	1	0	1	0	NA	NA	NA	NA	NA	NA	NA	NA	NA	NA	NA	NA	NA	NA	NA	NA	NA	NA	NA	NA	NA	NA	NA	NA	NA	NA	NA	NA	NA	NA	NA	NA	NA	NA	NA	ped	001	2026-04-28_16h04.26.819	SS	2023.1.0	59.75750406640737	NA
[(2, 2), (0, 0), (2, 2), (2, 1), (1, 2), (0, 0), (1, 1), (0, 1), (0, 2), (0, 0)]	NA	NA	NA	NA	NA	NA	NA	NA	NA	NA	NA	NA	NA	NA	NA	NA	NA	NA	NA	NA	NA	NA	NA	NA	NA	NA	NA	NA	NA	NA	NA	NA	0	0	0	0	0	0	0	532	NA	NA	NA	NA	NA	NA	671.5958680999465	NA	NA	NA	NA	NA	NA	NA	NA	NA	NA	NA	NA	NA	675.6605271999724	['left', 'right', 'left', 'left', 'left', 'right']	[8.574771200306714, 10.523951100651175, 13.105519800446928, 14.59067240031436, 16.708636400289834, 18.452649800572544]	ped	001	2026-04-28_16h04.26.819	SS	2023.1.0	59.75750406640737	NA
[(1, 1), (1, 0), (0, 0), (2, 1), (0, 1), (2, 0), (0, 2), (2, 2), (0, 1), (2, 0)]	NA	NA	NA	NA	NA	NA	NA	NA	NA	NA	NA	NA	NA	NA	NA	NA	NA	NA	NA	NA	NA	NA	NA	NA	NA	NA	NA	NA	NA	NA	NA	NA	0	0	0	0	0	1	1	127	NA	NA	NA	NA	NA	NA	NA	NA	NA	NA	NA	NA	NA	NA	NA	NA	NA	NA	NA	NA	696.6563975997269	['left', 'left', 'left', 'left', 'right', 'right']	[8.645880900323391, 10.627634100615978, 12.626308000646532, 14.642420900519937, 16.597698600497097, 18.368551400490105]	ped	001	2026-04-28_16h04.26.819	SS	2023.1.0	59.75750406640737	NA
[(2, 1), (0, 2), (1, 1), (0, 0), (2, 1), (0, 2), (0, 0), (2, 1), (0, 0), (0, 1)]	NA	NA	NA	NA	NA	NA	NA	NA	NA	NA	NA	NA	NA	NA	NA	NA	NA	NA	NA	NA	NA	NA	NA	NA	NA	NA	NA	NA	NA	NA	NA	NA	0	0	0	0	0	2	2	525	NA	NA	NA	NA	NA	NA	NA	NA	NA	NA	NA	NA	NA	NA	NA	NA	NA	NA	NA	NA	717.6709308996797	['right', 'left', 'right', 'left', 'left', 'left']	[8.614678299985826, 11.41179530043155, 13.111668500117958, 14.769421100150794, 16.75765460031107, 18.519611000083387]	ped	001	2026-04-28_16h04.26.819	SS	2023.1.0	59.75750406640737	NA
[(1, 0), (0, 2), (2, 2), (1, 2), (1, 2), (0, 2), (0, 1), (2, 2), (1, 2), (1, 0)]	NA	NA	NA	NA	NA	NA	NA	NA	NA	NA	NA	NA	NA	NA	NA	NA	NA	NA	NA	NA	NA	NA	NA	NA	NA	NA	NA	NA	NA	NA	NA	NA	0	0	0	0	0	3	3	447	NA	NA	NA	NA	NA	NA	NA	NA	NA	NA	NA	NA	NA	NA	NA	NA	NA	NA	NA	NA	738.6517318999395	['left', 'right', 'left', 'left', 'right', 'left']	[8.566906800027937, 10.580620200373232, 12.637523300014436, 14.718759700190276, 16.71306010009721, 18.66485400032252]	ped	001	2026-04-28_16h04.26.819	SS	2023.1.0	59.75750406640737	NA
[(0, 0), (1, 0), (1, 2), (1, 2), (0, 1), (1, 0), (0, 0), (0, 1), (0, 1), (1, 0)]	NA	NA	NA	NA	NA	NA	NA	NA	NA	NA	NA	NA	NA	NA	NA	NA	NA	NA	NA	NA	NA	NA	NA	NA	NA	NA	NA	NA	NA	NA	NA	NA	0	0	0	0	0	4	4	625	NA	NA	NA	NA	NA	NA	NA	NA	NA	NA	NA	NA	NA	NA	NA	NA	NA	NA	NA	NA	759.6779594998807	['left', 'right', 'left', 'left', 'right', 'right']	[8.767789100296795, 10.443056800402701, 12.539593700319529, 14.845669300295413, 16.522872400470078, 18.54600360011682]	ped	001	2026-04-28_16h04.26.819	SS	2023.1.0	59.75750406640737	NA
[(0, 0), (1, 1), (1, 1), (2, 0), (2, 1), (1, 1), (1, 1), (0, 0), (1, 2), (0, 1)]	NA	NA	NA	NA	NA	NA	NA	NA	NA	NA	NA	NA	NA	NA	NA	NA	NA	NA	NA	NA	NA	NA	NA	NA	NA	NA	NA	NA	NA	NA	NA	NA	0	0	0	0	0	5	5	280	NA	NA	NA	NA	NA	NA	NA	NA	NA	NA	NA	NA	NA	NA	NA	NA	NA	NA	NA	NA	780.6452407999896	['left', 'left', 'right', 'right', 'left', 'left', 'left']	[6.993924800306559, 8.532419900409877, 10.498458800371736, 12.436776800546795, 14.776457300409675, 17.12575410027057, 18.81117650028318]	ped	001	2026-04-28_16h04.26.819	SS	2023.1.0	59.75750406640737	NA
NA	NA	NA	NA	NA	NA	NA	NA	NA	NA	NA	NA	NA	NA	NA	NA	NA	NA	NA	NA	NA	NA	NA	NA	NA	NA	NA	NA	NA	NA	NA	NA	NA	0	0	0	0	NA	NA	NA	NA	NA	NA	NA	NA	NA	NA	NA	NA	NA	NA	NA	NA	NA	NA	NA	NA	NA	NA	NA	NA	NA	NA	NA	ped	001	2026-04-28_16h04.26.819	SS	2023.1.0	59.75750406640737	NA
[(0, 1), (1, 2), (0, 0), (2, 1), (1, 0), (1, 2), (0, 0), (1, 1), (1, 2), (1, 0)]	NA	NA	NA	NA	NA	NA	NA	NA	NA	NA	NA	NA	NA	NA	NA	NA	NA	NA	NA	NA	NA	NA	NA	NA	NA	NA	NA	NA	NA	NA	NA	NA	1	0	1	0	0	0	0	66	NA	NA	NA	NA	NA	NA	NA	NA	NA	NA	NA	NA	NA	NA	NA	NA	NA	NA	NA	NA	802.8151293997653	['left', 'right', 'left', 'left', 'left', 'left']	[8.714651100337505, 11.147623000200838, 12.682176100090146, 14.647432000376284, 16.722683200147003, 18.55582999996841]	ped	001	2026-04-28_16h04.26.819	SS	2023.1.0	59.75750406640737	NA
[(2, 0), (0, 0), (1, 2), (1, 0), (0, 1), (2, 1), (2, 1), (1, 0), (0, 1), (2, 2)]	NA	NA	NA	NA	NA	NA	NA	NA	NA	NA	NA	NA	NA	NA	NA	NA	NA	NA	NA	NA	NA	NA	NA	NA	NA	NA	NA	NA	NA	NA	NA	NA	1	0	1	0	0	1	1	557	NA	NA	NA	NA	NA	NA	NA	NA	NA	NA	NA	NA	NA	NA	NA	NA	NA	NA	NA	NA	823.8057789998129	['left', 'left', 'left', 'left', 'right', 'left', 'left']	[6.985893400385976, 8.573376500047743, 10.586548500228673, 12.693570000119507, 14.355441499967128, 16.384832500014454, 18.599948700051755]	ped	001	2026-04-28_16h04.26.819	SS	2023.1.0	59.75750406640737	NA
[(0, 0), (0, 1), (1, 0), (2, 1), (1, 2), (2, 0), (1, 0), (2, 1), (2, 2), (2, 2)]	NA	NA	NA	NA	NA	NA	NA	NA	NA	NA	NA	NA	NA	NA	NA	NA	NA	NA	NA	NA	NA	NA	NA	NA	NA	NA	NA	NA	NA	NA	NA	NA	1	0	1	0	0	2	2	394	NA	NA	NA	NA	NA	NA	NA	NA	NA	NA	NA	NA	NA	NA	NA	NA	NA	NA	NA	NA	844.7686963998713	['left', 'left', 'right', 'right', 'left', 'left']	[8.469619000330567, 10.62378970021382, 12.499186100438237, 14.382670200429857, 16.648935400415212, 18.606380800250918]	ped	001	2026-04-28_16h04.26.819	SS	2023.1.0	59.75750406640737	NA
[(0, 2), (2, 1), (0, 1), (2, 2), (0, 2), (0, 1), (1, 0), (2, 2), (0, 0), (2, 2)]	NA	NA	NA	NA	NA	NA	NA	NA	NA	NA	NA	NA	NA	NA	NA	NA	NA	NA	NA	NA	NA	NA	NA	NA	NA	NA	NA	NA	NA	NA	NA	NA	1	0	1	0	0	3	3	171	NA	NA	NA	NA	NA	NA	NA	NA	NA	NA	NA	NA	NA	NA	NA	NA	NA	NA	NA	NA	865.8201354998164	['right', 'left', 'left', 'right', 'left', 'left']	[8.722626800183207, 10.550204400438815, 12.579549000132829, 14.733573600184172, 16.590632300358266, 18.81650060042739]	ped	001	2026-04-28_16h04.26.819	SS	2023.1.0	59.75750406640737	NA
[(0, 1), (0, 0), (2, 2), (2, 2), (0, 2), (0, 0), (1, 1), (2, 2), (2, 1), (2, 0)]	NA	NA	NA	NA	NA	NA	NA	NA	NA	NA	NA	NA	NA	NA	NA	NA	NA	NA	NA	NA	NA	NA	NA	NA	NA	NA	NA	NA	NA	NA	NA	NA	1	0	1	0	0	4	4	666	NA	NA	NA	NA	NA	NA	NA	NA	NA	NA	NA	NA	NA	NA	NA	NA	NA	NA	NA	NA	886.7802276997827	['left', 'left', 'left', 'left', 'left', 'left']	[8.6511689000763, 10.703123100101948, 12.992212200071663, 14.941188200376928, 16.86134980013594, 18.683612800203264]	ped	001	2026-04-28_16h04.26.819	SS	2023.1.0	59.75750406640737	NA
[(0, 2), (2, 1), (1, 2), (1, 1), (1, 2), (2, 1), (0, 2), (1, 1), (1, 2), (0, 1)]	NA	NA	NA	NA	NA	NA	NA	NA	NA	NA	NA	NA	NA	NA	NA	NA	NA	NA	NA	NA	NA	NA	NA	NA	NA	NA	NA	NA	NA	NA	NA	NA	1	0	1	0	0	5	5	247	NA	NA	NA	NA	NA	NA	NA	NA	NA	NA	NA	NA	NA	NA	NA	NA	NA	NA	NA	NA	907.8132782997563	['left', 'right', 'left', 'right', 'left', 'left']	[9.09222730062902, 10.450644200202078, 12.50736050028354, 14.369640700519085, 16.55207970039919, 18.626595900394022]	ped	001	2026-04-28_16h04.26.819	SS	2023.1.0	59.75750406640737	NA
NA	NA	NA	NA	NA	NA	NA	NA	NA	NA	NA	NA	NA	NA	NA	NA	NA	NA	NA	NA	NA	NA	NA	NA	NA	NA	NA	NA	NA	NA	NA	NA	NA	1	0	1	0	NA	NA	NA	NA	NA	NA	NA	NA	NA	NA	NA	NA	NA	NA	NA	NA	NA	NA	NA	NA	NA	NA	NA	NA	NA	NA	NA	ped	001	2026-04-28_16h04.26.819	SS	2023.1.0	59.75750406640737	NA
