imagefile	stimfile	corrAns	MRdir	angle	training.thisRepN	training.thisTrialN	training.thisN	training.thisIndex	mentalrot_trials.thisRepN	mentalrot_trials.thisTrialN	mentalrot_trials.thisN	mentalrot_trials.thisIndex	blank.started	mr_answ_2.started	mr_answ_2.keys	mr_answ_2.corr	mr_answ_2.rt	blank.stopped	mr_answ.started	mr_answ.keys	mr_answ.corr	mr_answ.rt	byebye_text.started	byebye_text.stopped	participant	session	date	expName	psychopyVersion	frameRate
mr_images/7_b.png	mr_images/7_b_z_315.png	left	ccw	45	0	0	0	183	NA	NA	NA	NA	131.49352889996953	131.96357040014118	right	0	2.3187947999686003	NA	NA	NA	NA	NA	NA	NA	mfi	1	2026-02-20_15h36.46.495	MR	2023.1.0	59.962679223495506
mr_images/12_a.png	mr_images/12_a_z_45.png	left	cw	45	0	1	1	49	NA	NA	NA	NA	134.3264737999998	134.9095030000899	right	0	2.83081840001978	NA	NA	NA	NA	NA	NA	NA	mfi	1	2026-02-20_15h36.46.495	MR	2023.1.0	59.962679223495506
mr_images/1_a.png	mr_images/1_a_z_135.png	left	cw	135	0	2	2	9	NA	NA	NA	NA	137.75926179997623	138.34242400014773	right	0	2.607767399866134	138.34242400014773	NA	NA	NA	NA	NA	NA	mfi	1	2026-02-20_15h36.46.495	MR	2023.1.0	59.962679223495506
mr_images/7_a.png	mr_images/7_a_z_90.png	left	cw	90	0	3	3	173	NA	NA	NA	NA	140.97555169998668	141.5586578999646	right	0	4.745870999991894	141.5586578999646	NA	NA	NA	NA	NA	NA	mfi	1	2026-02-20_15h36.46.495	MR	2023.1.0	59.962679223495506
mr_images/11_b.png	mr_images/11_a_z_315.png	right	ccw	45	0	4	4	38	NA	NA	NA	NA	146.32471249997616	146.90799940004945	left	0	2.4107644998002797	146.90799940004945	NA	NA	NA	NA	NA	NA	mfi	1	2026-02-20_15h36.46.495	MR	2023.1.0	59.962679223495506
mr_images/3_a.png	mr_images/3_b_z_225.png	right	ccw	135	NA	NA	NA	NA	0	0	0	82	179.17008640011773	NA	NA	NA	NA	NA	179.65342089999467	right	1	2.38017535010347	NA	NA	mfi	1	2026-02-20_15h36.46.495	MR	2023.1.0	59.962679223495506
mr_images/11_b.png	mr_images/11_b_z_270.png	left	ccw	90	NA	NA	NA	NA	0	1	1	43	182.5532186999917	NA	NA	NA	NA	183.10291250003505	183.10291250003505	right	0	2.58114868377311	NA	NA	mfi	1	2026-02-20_15h36.46.495	MR	2023.1.0	59.962679223495506
mr_images/4_b.png	mr_images/4_a_z_45.png	right	cw	45	NA	NA	NA	NA	0	2	2	108	185.8359683000017	NA	NA	NA	NA	186.419057500083	186.419057500083	left	0	2.97931855467518	NA	NA	mfi	1	2026-02-20_15h36.46.495	MR	2023.1.0	59.962679223495506
mr_images/9_b.png	mr_images/9_a_z_135.png	right	cw	135	NA	NA	NA	NA	0	3	3	212	189.58560879994184	NA	NA	NA	NA	190.15595689998008	190.15595689998008	left	0	2.34853699480977	NA	NA	mfi	1	2026-02-20_15h36.46.495	MR	2023.1.0	59.962679223495506
mr_images/4_a.png	mr_images/4_b_z_135.png	right	cw	135	NA	NA	NA	NA	0	4	4	104	192.95612800004892	NA	NA	NA	NA	193.53490870003588	193.53490870003588	left	0	1.66153419457233	NA	NA	mfi	1	2026-02-20_15h36.46.495	MR	2023.1.0	59.962679223495506
mr_images/4_a.png	mr_images/4_a_z_315.png	left	ccw	45	NA	NA	NA	NA	0	5	5	99	195.60139620001428	NA	NA	NA	NA	196.1677403000649	196.1677403000649	right	0	1.93268277589415	NA	NA	mfi	1	2026-02-20_15h36.46.495	MR	2023.1.0	59.962679223495506
mr_images/12_b.png	mr_images/12_b_z_270.png	left	ccw	90	NA	NA	NA	NA	0	6	6	67	198.3508387999609	NA	NA	NA	NA	198.9197092000395	198.9197092000395	right	0	2.73336119793158	NA	NA	mfi	1	2026-02-20_15h36.46.495	MR	2023.1.0	59.962679223495506
mr_images/3_a.png	mr_images/3_a_z_315.png	left	ccw	45	NA	NA	NA	NA	0	7	7	75	202.08792240009643	NA	NA	NA	NA	202.6506251001265	202.6506251001265	right	1	1.4962089507061	NA	NA	mfi	1	2026-02-20_15h36.46.495	MR	2023.1.0	59.962679223495506
mr_images/1_a.png	mr_images/1_b_z_90.png	right	cw	90	NA	NA	NA	NA	0	8	8	4	204.73335009999573	NA	NA	NA	NA	205.2847550001461	205.2847550001461	right	1	3.47930289545143	NA	NA	mfi	1	2026-02-20_15h36.46.495	MR	2023.1.0	59.962679223495506
mr_images/3_b.png	mr_images/3_b_z_225.png	left	ccw	135	NA	NA	NA	NA	0	9	9	95	209.01617059996352	NA	NA	NA	NA	209.58296380005777	209.58296380005777	right	0	2.88080678748238	NA	NA	mfi	1	2026-02-20_15h36.46.495	MR	2023.1.0	59.962679223495506
mr_images/9_b.png	mr_images/9_a_z_45.png	right	cw	45	NA	NA	NA	NA	0	10	10	204	212.81552079995163	NA	NA	NA	NA	213.3654002000112	213.3654002000112	right	1	3.76911278625157	NA	NA	mfi	1	2026-02-20_15h36.46.495	MR	2023.1.0	59.962679223495506
mr_images/6_b.png	mr_images/6_b_z_270.png	left	ccw	90	NA	NA	NA	NA	0	11	11	163	217.33151119994	NA	NA	NA	NA	217.8981109999586	217.8981109999586	right	0	3.68484082994656	NA	NA	mfi	1	2026-02-20_15h36.46.495	MR	2023.1.0	59.962679223495506
mr_images/6_b.png	mr_images/6_b_z_315.png	left	ccw	45	NA	NA	NA	NA	0	12	12	159	221.73094410006888	NA	NA	NA	NA	222.29721820005216	222.29721820005216	right	0	4.46751869792803	NA	NA	mfi	1	2026-02-20_15h36.46.495	MR	2023.1.0	59.962679223495506
mr_images/4_b.png	mr_images/4_a_z_270.png	right	ccw	90	NA	NA	NA	NA	0	13	13	114	226.9344782999251	NA	NA	NA	NA	227.4974042000249	227.4974042000249	left	0	1.31503135195323	NA	NA	mfi	1	2026-02-20_15h36.46.495	MR	2023.1.0	59.962679223495506
mr_images/11_b.png	mr_images/11_a_z_135.png	right	cw	135	NA	NA	NA	NA	0	14	14	44	229.34648690000176	NA	NA	NA	NA	229.89968309993856	229.89968309993856	right	1	4.47742897936735	NA	NA	mfi	1	2026-02-20_15h36.46.495	MR	2023.1.0	59.962679223495506
mr_images/6_a.png	mr_images/6_b_z_45.png	right	cw	45	NA	NA	NA	NA	0	15	15	144	234.7834191999864	NA	NA	NA	NA	235.3623337999452	235.3623337999452	left	0	4.49457902057516	NA	NA	mfi	1	2026-02-20_15h36.46.495	MR	2023.1.0	59.962679223495506
mr_images/6_a.png	mr_images/6_a_z_315.png	left	ccw	45	NA	NA	NA	NA	0	16	16	147	239.92854889994487	NA	NA	NA	NA	240.49503959994763	240.49503959994763	right	0	1.98792850220907	NA	NA	mfi	1	2026-02-20_15h36.46.495	MR	2023.1.0	59.962679223495506
mr_images/7_b.png	mr_images/7_b_z_90.png	left	cw	90	NA	NA	NA	NA	0	17	17	185	242.72807279997505	NA	NA	NA	NA	243.2779831001535	243.2779831001535	right	0	3.57315227459014	NA	NA	mfi	1	2026-02-20_15h36.46.495	MR	2023.1.0	59.962679223495506
mr_images/7_b.png	mr_images/7_a_z_270.png	right	ccw	90	NA	NA	NA	NA	0	18	18	186	247.29418800002895	NA	NA	NA	NA	247.86082580010407	247.86082580010407	left	1	2.30701995990139	NA	NA	mfi	1	2026-02-20_15h36.46.495	MR	2023.1.0	59.962679223495506
mr_images/12_b.png	mr_images/12_a_z_90.png	right	cw	90	NA	NA	NA	NA	0	19	19	64	250.61028850008736	NA	NA	NA	NA	251.17707969993353	251.17707969993353	None	0	NA	NA	NA	mfi	1	2026-02-20_15h36.46.495	MR	2023.1.0	59.962679223495506
mr_images/4_b.png	mr_images/4_a_z_135.png	right	cw	135	NA	NA	NA	NA	0	20	20	116	256.1263683999423	NA	NA	NA	NA	NA	256.69283920014277	left	0	3.43729007129734	NA	NA	mfi	1	2026-02-20_15h36.46.495	MR	2023.1.0	59.962679223495506
mr_images/3_b.png	mr_images/3_a_z_45.png	right	cw	45	NA	NA	NA	NA	0	21	21	84	260.39224159996957	NA	NA	NA	NA	260.92834380012937	260.92834380012937	left	0	2.09570510318553	NA	NA	mfi	1	2026-02-20_15h36.46.495	MR	2023.1.0	59.962679223495506
mr_images/6_b.png	mr_images/6_a_z_90.png	right	cw	90	NA	NA	NA	NA	0	22	22	160	263.16273099998944	NA	NA	NA	NA	263.7087692001369	263.7087692001369	right	1	3.3017958474048	NA	NA	mfi	1	2026-02-20_15h36.46.495	MR	2023.1.0	59.962679223495506
mr_images/6_b.png	mr_images/6_b_z_135.png	left	cw	135	NA	NA	NA	NA	0	23	23	165	267.0913856001571	NA	NA	NA	NA	267.6581266000867	267.6581266000867	right	0	2.51397122821593	NA	NA	mfi	1	2026-02-20_15h36.46.495	MR	2023.1.0	59.962679223495506
mr_images/3_a.png	mr_images/3_a_z_225.png	left	ccw	135	NA	NA	NA	NA	0	24	24	83	270.74083269992843	NA	NA	NA	NA	271.2914712000638	271.2914712000638	right	0	3.88761447944471	NA	NA	mfi	1	2026-02-20_15h36.46.495	MR	2023.1.0	59.962679223495506
mr_images/3_b.png	mr_images/3_a_z_225.png	right	ccw	135	NA	NA	NA	NA	0	25	25	94	275.5902158000972	NA	NA	NA	NA	276.1241338001564	276.1241338001564	left	1	2.97181374573947	NA	NA	mfi	1	2026-02-20_15h36.46.495	MR	2023.1.0	59.962679223495506
mr_images/3_b.png	mr_images/3_b_z_135.png	left	cw	135	NA	NA	NA	NA	0	26	26	93	279.2396507000085	NA	NA	NA	NA	279.8061609000433	279.8061609000433	right	1	2.22212609961817	NA	NA	mfi	1	2026-02-20_15h36.46.495	MR	2023.1.0	59.962679223495506
mr_images/7_b.png	mr_images/7_a_z_315.png	right	ccw	45	NA	NA	NA	NA	0	27	27	182	282.13932840013877	NA	NA	NA	NA	282.69031070009805	282.69031070009805	left	1	1.50470448053838	NA	NA	mfi	1	2026-02-20_15h36.46.495	MR	2023.1.0	59.962679223495506
mr_images/12_b.png	mr_images/12_b_z_315.png	left	ccw	45	NA	NA	NA	NA	0	28	28	63	284.40559560013935	NA	NA	NA	NA	NA	284.97221889998764	right	0	2.83083449484182	NA	NA	mfi	1	2026-02-20_15h36.46.495	MR	2023.1.0	59.962679223495506
mr_images/12_b.png	mr_images/12_a_z_135.png	right	cw	135	NA	NA	NA	NA	0	29	29	68	288.07184839993715	NA	NA	NA	NA	288.6217294000089	288.6217294000089	left	0	3.60165882065154	NA	NA	mfi	1	2026-02-20_15h36.46.495	MR	2023.1.0	59.962679223495506
mr_images/9_a.png	mr_images/9_b_z_225.png	right	ccw	135	NA	NA	NA	NA	0	30	30	202	292.5877466001548	NA	NA	NA	NA	293.1708943999838	293.1708943999838	left	1	3.46063162194201	NA	NA	mfi	1	2026-02-20_15h36.46.495	MR	2023.1.0	59.962679223495506
mr_images/9_b.png	mr_images/9_a_z_315.png	right	ccw	45	NA	NA	NA	NA	0	31	31	206	296.9043950000778	NA	NA	NA	NA	297.47053249995224	297.47053249995224	left	0	NA	NA	NA	mfi	1	2026-02-20_15h36.46.495	MR	2023.1.0	59.962679223495506
mr_images/12_a.png	mr_images/12_b_z_315.png	right	ccw	45	NA	NA	NA	NA	0	32	32	50	299.2368576999288	NA	NA	NA	NA	299.77028709999286	299.77028709999286	left	0	1.5162400605184	NA	NA	mfi	1	2026-02-20_15h36.46.495	MR	2023.1.0	59.962679223495506
mr_images/6_b.png	mr_images/6_a_z_135.png	right	cw	135	NA	NA	NA	NA	0	33	33	164	301.7367336000316	NA	NA	NA	NA	302.3032516001258	302.3032516001258	left	0	2.95200547638607	NA	NA	mfi	1	2026-02-20_15h36.46.495	MR	2023.1.0	59.962679223495506
mr_images/7_b.png	mr_images/7_b_z_135.png	left	cw	135	NA	NA	NA	NA	0	34	34	189	305.7859319001436	NA	NA	NA	NA	306.3525020999368	306.3525020999368	right	1	2.98324161156828	NA	NA	mfi	1	2026-02-20_15h36.46.495	MR	2023.1.0	59.962679223495506
mr_images/1_b.png	mr_images/1_a_z_90.png	right	cw	90	NA	NA	NA	NA	0	35	35	16	309.85218910011463	NA	NA	NA	NA	310.4353066999465	310.4353066999465	left	0	3.95529041439536	NA	NA	mfi	1	2026-02-20_15h36.46.495	MR	2023.1.0	59.962679223495506
mr_images/5_a.png	mr_images/5_a_z_90.png	left	cw	90	NA	NA	NA	NA	0	36	36	125	314.6180344000459	NA	NA	NA	NA	315.20132980006747	315.20132980006747	right	0	2.64727698629769	NA	NA	mfi	1	2026-02-20_15h36.46.495	MR	2023.1.0	59.962679223495506
mr_images/4_b.png	mr_images/4_b_z_270.png	left	ccw	90	NA	NA	NA	NA	0	37	37	115	318.10092770005576	NA	NA	NA	NA	318.65544939995743	318.65544939995743	right	0	2.1439300179929	NA	NA	mfi	1	2026-02-20_15h36.46.495	MR	2023.1.0	59.962679223495506
mr_images/12_a.png	mr_images/12_a_z_135.png	left	cw	135	NA	NA	NA	NA	0	38	38	57	321.3713418999687	NA	NA	NA	NA	321.9014439000748	321.9014439000748	right	0	2.6561918049327	NA	NA	mfi	1	2026-02-20_15h36.46.495	MR	2023.1.0	59.962679223495506
mr_images/5_b.png	mr_images/5_a_z_90.png	right	cw	90	NA	NA	NA	NA	0	39	39	136	324.90025780000724	NA	NA	NA	NA	325.45371209993027	325.45371209993027	left	0	1.75178839214534	NA	NA	mfi	1	2026-02-20_15h36.46.495	MR	2023.1.0	59.962679223495506
mr_images/6_a.png	mr_images/6_b_z_135.png	right	cw	135	NA	NA	NA	NA	0	40	40	152	327.4205162001308	NA	NA	NA	NA	327.9508017001208	327.9508017001208	left	0	2.74625757388181	NA	NA	mfi	1	2026-02-20_15h36.46.495	MR	2023.1.0	59.962679223495506
mr_images/7_a.png	mr_images/7_a_z_315.png	left	ccw	45	NA	NA	NA	NA	0	41	41	171	330.98252830002457	NA	NA	NA	NA	331.5157371000387	331.5157371000387	right	0	2.35269097521644	NA	NA	mfi	1	2026-02-20_15h36.46.495	MR	2023.1.0	59.962679223495506
mr_images/9_a.png	mr_images/9_a_z_225.png	left	ccw	135	NA	NA	NA	NA	0	42	42	203	333.94875600002706	NA	NA	NA	NA	334.5153648001142	334.5153648001142	left	1	2.52936973781613	NA	NA	mfi	1	2026-02-20_15h36.46.495	MR	2023.1.0	59.962679223495506
mr_images/4_b.png	mr_images/4_a_z_225.png	right	ccw	135	NA	NA	NA	NA	0	43	43	118	337.2816032001283	NA	NA	NA	NA	337.84812360000797	337.84812360000797	left	0	2.05746423275615	NA	NA	mfi	1	2026-02-20_15h36.46.495	MR	2023.1.0	59.962679223495506
mr_images/1_a.png	mr_images/1_a_z_225.png	left	ccw	135	NA	NA	NA	NA	0	44	44	11	340.31455880007707	NA	NA	NA	NA	340.88098890008405	340.88098890008405	right	0	4.18574292281602	NA	NA	mfi	1	2026-02-20_15h36.46.495	MR	2023.1.0	59.962679223495506
mr_images/11_b.png	mr_images/11_b_z_90.png	left	cw	90	NA	NA	NA	NA	0	45	45	41	345.43045970005915	NA	NA	NA	NA	345.997332500061	345.997332500061	right	0	2.7158626535174	NA	NA	mfi	1	2026-02-20_15h36.46.495	MR	2023.1.0	59.962679223495506
mr_images/7_a.png	mr_images/7_b_z_270.png	right	ccw	90	NA	NA	NA	NA	0	46	46	174	348.99666960001923	NA	NA	NA	NA	349.5309695999604	349.5309695999604	left	0	2.22264275504039	NA	NA	mfi	1	2026-02-20_15h36.46.495	MR	2023.1.0	59.962679223495506
mr_images/1_b.png	mr_images/1_b_z_270.png	left	ccw	90	NA	NA	NA	NA	0	47	47	19	352.1462397000287	NA	NA	NA	NA	352.71283520013094	352.71283520013094	right	0	3.25090483741217	NA	NA	mfi	1	2026-02-20_15h36.46.495	MR	2023.1.0	59.962679223495506
mr_images/12_b.png	mr_images/12_a_z_270.png	right	ccw	90	NA	NA	NA	NA	0	48	48	66	356.3789504999295	NA	NA	NA	NA	356.92898960015737	356.92898960015737	left	0	2.86958726252138	NA	NA	mfi	1	2026-02-20_15h36.46.495	MR	2023.1.0	59.962679223495506
mr_images/1_b.png	mr_images/1_b_z_90.png	left	cw	90	NA	NA	NA	NA	0	49	49	17	360.2288734000176	NA	NA	NA	NA	360.7616326001007	360.7616326001007	right	0	3.00566350009535	NA	NA	mfi	1	2026-02-20_15h36.46.495	MR	2023.1.0	59.962679223495506
mr_images/7_b.png	mr_images/7_b_z_315.png	left	ccw	45	NA	NA	NA	NA	0	50	50	183	364.2779280000832	NA	NA	NA	NA	364.8110935001168	364.8110935001168	right	0	2.65604431658554	NA	NA	mfi	1	2026-02-20_15h36.46.495	MR	2023.1.0	59.962679223495506
mr_images/5_a.png	mr_images/5_a_z_135.png	left	cw	135	NA	NA	NA	NA	0	51	51	129	367.560729800025	NA	NA	NA	NA	368.12718009995297	368.12718009995297	left	1	2.49352916149223	NA	NA	mfi	1	2026-02-20_15h36.46.495	MR	2023.1.0	59.962679223495506
mr_images/3_b.png	mr_images/3_b_z_315.png	left	ccw	45	NA	NA	NA	NA	0	52	52	87	371.01027099997737	NA	NA	NA	NA	371.56605760008097	371.56605760008097	right	0	2.33964966147146	NA	NA	mfi	1	2026-02-20_15h36.46.495	MR	2023.1.0	59.962679223495506
mr_images/1_a.png	mr_images/1_a_z_270.png	left	ccw	90	NA	NA	NA	NA	0	53	53	7	374.23067980003543	NA	NA	NA	NA	374.79310479993	374.79310479993	left	1	4.82253920720282	NA	NA	mfi	1	2026-02-20_15h36.46.495	MR	2023.1.0	59.962679223495506
mr_images/9_a.png	mr_images/9_a_z_45.png	left	cw	45	NA	NA	NA	NA	0	54	54	193	379.72570730000734	NA	NA	NA	NA	380.2589211000595	380.2589211000595	right	0	1.61011754641281	NA	NA	mfi	1	2026-02-20_15h36.46.495	MR	2023.1.0	59.962679223495506
mr_images/9_b.png	mr_images/9_b_z_225.png	left	ccw	135	NA	NA	NA	NA	0	55	55	215	382.4253782001324	NA	NA	NA	NA	382.958646300016	382.958646300016	right	0	4.06124060133398	NA	NA	mfi	1	2026-02-20_15h36.46.495	MR	2023.1.0	59.962679223495506
mr_images/11_a.png	mr_images/11_a_z_225.png	left	ccw	135	NA	NA	NA	NA	0	56	56	35	387.074767800048	NA	NA	NA	NA	387.6440628999844	387.6440628999844	left	1	3.0406536602745	NA	NA	mfi	1	2026-02-20_15h36.46.495	MR	2023.1.0	59.962679223495506
mr_images/7_b.png	mr_images/7_b_z_45.png	left	cw	45	NA	NA	NA	NA	0	57	57	181	390.7283447000664	NA	NA	NA	NA	391.27645470015705	391.27645470015705	left	1	2.56438708508123	NA	NA	mfi	1	2026-02-20_15h36.46.495	MR	2023.1.0	59.962679223495506
mr_images/7_a.png	mr_images/7_a_z_135.png	left	cw	135	NA	NA	NA	NA	0	58	58	177	394.2279296000488	NA	NA	NA	NA	394.79191739996895	394.79191739996895	right	0	3.4365147053206	NA	NA	mfi	1	2026-02-20_15h36.46.495	MR	2023.1.0	59.962679223495506
mr_images/5_a.png	mr_images/5_b_z_135.png	right	cw	135	NA	NA	NA	NA	0	59	59	128	398.3439956000075	NA	NA	NA	NA	398.90636060014367	398.90636060014367	left	0	2.71236438557333	NA	NA	mfi	1	2026-02-20_15h36.46.495	MR	2023.1.0	59.962679223495506
mr_images/1_b.png	mr_images/1_a_z_135.png	right	cw	135	NA	NA	NA	NA	0	60	60	20	401.68932490004227	NA	NA	NA	NA	402.2224834000226	402.2224834000226	left	0	1.82522981431859	NA	NA	mfi	1	2026-02-20_15h36.46.495	MR	2023.1.0	59.962679223495506
mr_images/4_a.png	mr_images/4_a_z_135.png	left	cw	135	NA	NA	NA	NA	0	61	61	105	404.6556114000268	NA	NA	NA	NA	405.1889635999687	405.1889635999687	left	1	3.11110699882425	NA	NA	mfi	1	2026-02-20_15h36.46.495	MR	2023.1.0	59.962679223495506
mr_images/6_a.png	mr_images/6_a_z_45.png	left	cw	45	NA	NA	NA	NA	0	62	62	145	408.4051540000364	NA	NA	NA	NA	408.97163680009544	408.97163680009544	right	0	2.78392718730471	NA	NA	mfi	1	2026-02-20_15h36.46.495	MR	2023.1.0	59.962679223495506
mr_images/7_a.png	mr_images/7_b_z_45.png	right	cw	45	NA	NA	NA	NA	0	63	63	168	412.3045340999961	NA	NA	NA	NA	412.83783570001833	412.83783570001833	left	0	1.8588443959045	NA	NA	mfi	1	2026-02-20_15h36.46.495	MR	2023.1.0	59.962679223495506
mr_images/9_b.png	mr_images/9_a_z_225.png	right	ccw	135	NA	NA	NA	NA	0	64	64	214	415.1541486000642	NA	NA	NA	NA	415.6873663000297	415.6873663000297	left	0	1.77004403468903	NA	NA	mfi	1	2026-02-20_15h36.46.495	MR	2023.1.0	59.962679223495506
mr_images/3_a.png	mr_images/3_a_z_270.png	left	ccw	90	NA	NA	NA	NA	0	65	65	79	417.80378310009843	NA	NA	NA	NA	418.37031750008464	418.37031750008464	right	0	2.32671468298397	NA	NA	mfi	1	2026-02-20_15h36.46.495	MR	2023.1.0	59.962679223495506
mr_images/12_b.png	mr_images/12_b_z_225.png	left	ccw	135	NA	NA	NA	NA	0	66	66	71	420.8033376999665	NA	NA	NA	NA	421.3699298999272	421.3699298999272	right	0	3.72427634806746	NA	NA	mfi	1	2026-02-20_15h36.46.495	MR	2023.1.0	59.962679223495506
mr_images/5_b.png	mr_images/5_a_z_315.png	right	ccw	45	NA	NA	NA	NA	0	67	67	134	425.25283699994907	NA	NA	NA	NA	425.8191674000118	425.8191674000118	left	0	0.997240257667737	NA	NA	mfi	1	2026-02-20_15h36.46.495	MR	2023.1.0	59.962679223495506
mr_images/6_a.png	mr_images/6_a_z_90.png	left	cw	90	NA	NA	NA	NA	0	68	68	149	427.3190645000432	NA	NA	NA	NA	427.8523407999892	427.8523407999892	right	0	3.25855904998449	NA	NA	mfi	1	2026-02-20_15h36.46.495	MR	2023.1.0	59.962679223495506
mr_images/6_b.png	mr_images/6_a_z_45.png	right	cw	45	NA	NA	NA	NA	0	69	69	156	431.30200979998335	NA	NA	NA	NA	431.85178919998	431.85178919998	left	0	3.881601155855	NA	NA	mfi	1	2026-02-20_15h36.46.495	MR	2023.1.0	59.962679223495506
mr_images/5_a.png	mr_images/5_b_z_45.png	right	cw	45	NA	NA	NA	NA	0	70	70	120	436.0512059000321	NA	NA	NA	NA	436.6009683001321	436.6009683001321	left	0	3.03262275074922	NA	NA	mfi	1	2026-02-20_15h36.46.495	MR	2023.1.0	59.962679223495506
mr_images/3_b.png	mr_images/3_a_z_90.png	right	cw	90	NA	NA	NA	NA	0	71	71	88	440.1673928999808	NA	NA	NA	NA	440.73399450001307	440.73399450001307	right	1	3.31400758846195	NA	NA	mfi	1	2026-02-20_15h36.46.495	MR	2023.1.0	59.962679223495506
mr_images/1_b.png	mr_images/1_a_z_270.png	right	ccw	90	NA	NA	NA	NA	0	72	72	18	444.4666295000352	NA	NA	NA	NA	444.9998769001104	444.9998769001104	left	0	2.00313813999739	NA	NA	mfi	1	2026-02-20_15h36.46.495	MR	2023.1.0	59.962679223495506
mr_images/1_b.png	mr_images/1_b_z_225.png	left	ccw	135	NA	NA	NA	NA	0	73	73	23	447.3166283001192	NA	NA	NA	NA	447.8829036001116	447.8829036001116	right	0	3.10532120818577	NA	NA	mfi	1	2026-02-20_15h36.46.495	MR	2023.1.0	59.962679223495506
mr_images/12_a.png	mr_images/12_b_z_135.png	right	cw	135	NA	NA	NA	NA	0	74	74	56	451.0658050000202	NA	NA	NA	NA	451.6323357000947	451.6323357000947	right	1	2.51410580079331	NA	NA	mfi	1	2026-02-20_15h36.46.495	MR	2023.1.0	59.962679223495506
mr_images/5_a.png	mr_images/5_b_z_225.png	right	ccw	135	NA	NA	NA	NA	0	75	75	130	454.1987394001335	NA	NA	NA	NA	454.7535321000032	454.7535321000032	left	0	2.63473799478239	NA	NA	mfi	1	2026-02-20_15h36.46.495	MR	2023.1.0	59.962679223495506
mr_images/9_b.png	mr_images/9_b_z_135.png	left	cw	135	NA	NA	NA	NA	0	76	76	213	457.752430499997	NA	NA	NA	NA	458.314789700089	458.314789700089	right	0	NA	NA	NA	mfi	1	2026-02-20_15h36.46.495	MR	2023.1.0	59.962679223495506
mr_images/12_b.png	mr_images/12_a_z_225.png	right	ccw	135	NA	NA	NA	NA	0	77	77	70	461.01462729997	NA	NA	NA	NA	461.5702140000649	461.5702140000649	right	1	2.52641737779818	NA	NA	mfi	1	2026-02-20_15h36.46.495	MR	2023.1.0	59.962679223495506
mr_images/4_b.png	mr_images/4_b_z_45.png	left	cw	45	NA	NA	NA	NA	0	78	78	109	464.56815330008976	NA	NA	NA	NA	465.13281650003046	465.13281650003046	left	1	2.4623343947816	NA	NA	mfi	1	2026-02-20_15h36.46.495	MR	2023.1.0	59.962679223495506
mr_images/4_a.png	mr_images/4_b_z_90.png	right	cw	90	NA	NA	NA	NA	0	79	79	100	468.1343159000389	NA	NA	NA	NA	468.69641009997576	468.69641009997576	left	0	1.80229578389085	NA	NA	mfi	1	2026-02-20_15h36.46.495	MR	2023.1.0	59.962679223495506
mr_images/4_a.png	mr_images/4_b_z_270.png	right	ccw	90	NA	NA	NA	NA	0	80	80	102	470.7633756001014	NA	NA	NA	NA	471.2960938999895	471.2960938999895	left	0	2.19925632589918	NA	NA	mfi	1	2026-02-20_15h36.46.495	MR	2023.1.0	59.962679223495506
mr_images/12_a.png	mr_images/12_a_z_315.png	left	ccw	45	NA	NA	NA	NA	0	81	81	51	473.9294082000851	NA	NA	NA	NA	474.4788937999401	474.4788937999401	left	1	3.34491595385656	NA	NA	mfi	1	2026-02-20_15h36.46.495	MR	2023.1.0	59.962679223495506
mr_images/7_a.png	mr_images/7_b_z_225.png	right	ccw	135	NA	NA	NA	NA	0	82	82	178	478.1454183999449	NA	NA	NA	NA	478.7000496999826	478.7000496999826	left	0	2.07328549429684	NA	NA	mfi	1	2026-02-20_15h36.46.495	MR	2023.1.0	59.962679223495506
mr_images/4_a.png	mr_images/4_a_z_225.png	left	ccw	135	NA	NA	NA	NA	0	83	83	107	480.999342800118	NA	NA	NA	NA	481.528471800033	481.528471800033	right	1	1.8120430036131	NA	NA	mfi	1	2026-02-20_15h36.46.495	MR	2023.1.0	59.962679223495506
mr_images/6_b.png	mr_images/6_a_z_315.png	right	ccw	45	NA	NA	NA	NA	0	84	84	158	483.74471210013144	NA	NA	NA	NA	484.2778358000796	484.2778358000796	left	1	2.10960960459588	NA	NA	mfi	1	2026-02-20_15h36.46.495	MR	2023.1.0	59.962679223495506
mr_images/9_a.png	mr_images/9_a_z_90.png	left	cw	90	NA	NA	NA	NA	0	85	85	197	486.76084240013734	NA	NA	NA	NA	487.3290132000111	487.3290132000111	right	0	3.21907604424051	NA	NA	mfi	1	2026-02-20_15h36.46.495	MR	2023.1.0	59.962679223495506
mr_images/6_b.png	mr_images/6_b_z_90.png	left	cw	90	NA	NA	NA	NA	0	86	86	161	491.01030270010233	NA	NA	NA	NA	491.5773545000702	491.5773545000702	left	1	2.34299544631943	NA	NA	mfi	1	2026-02-20_15h36.46.495	MR	2023.1.0	59.962679223495506
mr_images/9_a.png	mr_images/9_b_z_90.png	right	cw	90	NA	NA	NA	NA	0	87	87	196	494.126562200021	NA	NA	NA	NA	494.67850110004656	494.67850110004656	left	0	1.8430026307234	NA	NA	mfi	1	2026-02-20_15h36.46.495	MR	2023.1.0	59.962679223495506
mr_images/9_a.png	mr_images/9_a_z_315.png	left	ccw	45	NA	NA	NA	NA	0	88	88	195	496.63040140015073	NA	NA	NA	NA	497.161188099999	497.161188099999	right	0	2.07983808743455	NA	NA	mfi	1	2026-02-20_15h36.46.495	MR	2023.1.0	59.962679223495506
mr_images/4_a.png	mr_images/4_a_z_45.png	left	cw	45	NA	NA	NA	NA	0	89	89	97	499.69653700012714	NA	NA	NA	NA	500.22556350007653	500.22556350007653	right	0	1.75356409924489	NA	NA	mfi	1	2026-02-20_15h36.46.495	MR	2023.1.0	59.962679223495506
mr_images/9_b.png	mr_images/9_a_z_270.png	right	ccw	90	NA	NA	NA	NA	0	90	90	210	502.5252998000942	NA	NA	NA	NA	503.0919594999869	503.0919594999869	left	0	1.76611206267086	NA	NA	mfi	1	2026-02-20_15h36.46.495	MR	2023.1.0	59.962679223495506
mr_images/12_a.png	mr_images/12_a_z_90.png	left	cw	90	NA	NA	NA	NA	0	91	91	53	504.9916759999469	NA	NA	NA	NA	505.52486090012826	505.52486090012826	right	1	2.65959511080783	NA	NA	mfi	1	2026-02-20_15h36.46.495	MR	2023.1.0	59.962679223495506
mr_images/9_b.png	mr_images/9_b_z_45.png	left	cw	45	NA	NA	NA	NA	0	92	92	205	508.5245483999606	NA	NA	NA	NA	509.0910251000896	509.0910251000896	right	0	1.6549240537112	NA	NA	mfi	1	2026-02-20_15h36.46.495	MR	2023.1.0	59.962679223495506
mr_images/4_a.png	mr_images/4_a_z_90.png	left	cw	90	NA	NA	NA	NA	0	93	93	101	510.90754449996166	NA	NA	NA	NA	511.4741668000352	511.4741668000352	right	0	1.85494187005123	NA	NA	mfi	1	2026-02-20_15h36.46.495	MR	2023.1.0	59.962679223495506
mr_images/11_a.png	mr_images/11_a_z_45.png	left	cw	45	NA	NA	NA	NA	0	94	94	25	513.5238087000325	NA	NA	NA	NA	514.0757693999913	514.0757693999913	right	0	2.15552338334509	NA	NA	mfi	1	2026-02-20_15h36.46.495	MR	2023.1.0	59.962679223495506
mr_images/5_b.png	mr_images/5_b_z_135.png	left	cw	135	NA	NA	NA	NA	0	95	95	141	516.4946034001186	NA	NA	NA	NA	NA	517.0402067999821	right	0	1.87571504737628	NA	NA	mfi	1	2026-02-20_15h36.46.495	MR	2023.1.0	59.962679223495506
mr_images/3_b.png	mr_images/3_a_z_270.png	right	ccw	90	NA	NA	NA	NA	0	96	96	90	519.5229609000962	NA	NA	NA	NA	520.0561774000525	520.0561774000525	left	0	1.21216919900907	NA	NA	mfi	1	2026-02-20_15h36.46.495	MR	2023.1.0	59.962679223495506
mr_images/11_b.png	mr_images/11_b_z_45.png	left	cw	45	NA	NA	NA	NA	0	97	97	37	521.4227199000306	NA	NA	NA	NA	521.9775042000692	521.9775042000692	right	0	1.63232394926628	NA	NA	mfi	1	2026-02-20_15h36.46.495	MR	2023.1.0	59.962679223495506
mr_images/1_a.png	mr_images/1_a_z_135.png	left	cw	135	NA	NA	NA	NA	0	98	98	9	524.1932363000233	NA	NA	NA	NA	524.7243087999523	524.7243087999523	left	1	2.21120202871112	NA	NA	mfi	1	2026-02-20_15h36.46.495	MR	2023.1.0	59.962679223495506
mr_images/11_a.png	mr_images/11_b_z_225.png	right	ccw	135	NA	NA	NA	NA	0	99	99	34	527.2095339000225	NA	NA	NA	NA	527.7720735000912	527.7720735000912	left	0	2.18027541213047	NA	NA	mfi	1	2026-02-20_15h36.46.495	MR	2023.1.0	59.962679223495506
mr_images/3_a.png	mr_images/3_a_z_45.png	left	cw	45	NA	NA	NA	NA	0	100	100	73	530.5214350000024	NA	NA	NA	NA	531.0548058000859	531.0548058000859	right	1	2.1409915172383	NA	NA	mfi	1	2026-02-20_15h36.46.495	MR	2023.1.0	59.962679223495506
mr_images/4_b.png	mr_images/4_b_z_225.png	left	ccw	135	NA	NA	NA	NA	0	101	101	119	533.4211472999305	NA	NA	NA	NA	533.9877339999657	533.9877339999657	right	0	1.24763252229615	NA	NA	mfi	1	2026-02-20_15h36.46.495	MR	2023.1.0	59.962679223495506
mr_images/11_b.png	mr_images/11_b_z_225.png	left	ccw	135	NA	NA	NA	NA	0	102	102	47	535.537327399943	NA	NA	NA	NA	536.0705443001352	536.0705443001352	right	0	2.05773543110622	NA	NA	mfi	1	2026-02-20_15h36.46.495	MR	2023.1.0	59.962679223495506
mr_images/3_a.png	mr_images/3_b_z_90.png	right	cw	90	NA	NA	NA	NA	0	103	103	76	538.4037001000252	NA	NA	NA	NA	538.9701111000031	538.9701111000031	right	1	2.55868834947696	NA	NA	mfi	1	2026-02-20_15h36.46.495	MR	2023.1.0	59.962679223495506
mr_images/6_a.png	mr_images/6_a_z_135.png	left	cw	135	NA	NA	NA	NA	0	104	104	153	541.5698780000675	NA	NA	NA	NA	542.0889043000061	542.0889043000061	right	0	2.52241466325354	NA	NA	mfi	1	2026-02-20_15h36.46.495	MR	2023.1.0	59.962679223495506
mr_images/4_a.png	mr_images/4_b_z_225.png	right	ccw	135	NA	NA	NA	NA	0	105	105	106	544.7403017999604	NA	NA	NA	NA	545.2578352999408	545.2578352999408	left	0	0.991804882060916	NA	NA	mfi	1	2026-02-20_15h36.46.495	MR	2023.1.0	59.962679223495506
mr_images/1_a.png	mr_images/1_b_z_225.png	right	ccw	135	NA	NA	NA	NA	0	106	106	10	546.8067884999327	NA	NA	NA	NA	547.338580199983	547.338580199983	left	1	1.56996037450937	NA	NA	mfi	1	2026-02-20_15h36.46.495	MR	2023.1.0	59.962679223495506
mr_images/5_b.png	mr_images/5_a_z_270.png	right	ccw	90	NA	NA	NA	NA	0	107	107	138	549.1897390999366	NA	NA	NA	NA	549.7520348001271	549.7520348001271	left	0	1.50956490295304	NA	NA	mfi	1	2026-02-20_15h36.46.495	MR	2023.1.0	59.962679223495506
mr_images/1_b.png	mr_images/1_b_z_135.png	left	cw	135	NA	NA	NA	NA	0	108	108	21	551.5688325001393	NA	NA	NA	NA	552.1350406000856	552.1350406000856	right	1	1.63770893806885	NA	NA	mfi	1	2026-02-20_15h36.46.495	MR	2023.1.0	59.962679223495506
mr_images/11_a.png	mr_images/11_a_z_315.png	left	ccw	45	NA	NA	NA	NA	0	109	109	27	554.2348412000574	NA	NA	NA	NA	554.768098999979	554.768098999979	right	1	3.23043683124752	NA	NA	mfi	1	2026-02-20_15h36.46.495	MR	2023.1.0	59.962679223495506
mr_images/1_b.png	mr_images/1_b_z_315.png	left	ccw	45	NA	NA	NA	NA	0	110	110	15	558.6175180000719	NA	NA	NA	NA	559.1842799000442	559.1842799000442	left	1	2.8703397429337	NA	NA	mfi	1	2026-02-20_15h36.46.495	MR	2023.1.0	59.962679223495506
mr_images/11_a.png	mr_images/11_a_z_90.png	left	cw	90	NA	NA	NA	NA	0	111	111	29	562.6502849000972	NA	NA	NA	NA	563.2169272999745	563.2169272999745	right	0	2.92628213595237	NA	NA	mfi	1	2026-02-20_15h36.46.495	MR	2023.1.0	59.962679223495506
mr_images/4_a.png	mr_images/4_b_z_45.png	right	cw	45	NA	NA	NA	NA	0	112	112	96	566.5495905000716	NA	NA	NA	NA	567.0830125999637	567.0830125999637	left	0	2.21870848417251	NA	NA	mfi	1	2026-02-20_15h36.46.495	MR	2023.1.0	59.962679223495506
mr_images/7_a.png	mr_images/7_a_z_270.png	left	ccw	90	NA	NA	NA	NA	0	113	113	175	569.6493369999807	NA	NA	NA	NA	570.1827120999806	570.1827120999806	right	0	2.44657076924478	NA	NA	mfi	1	2026-02-20_15h36.46.495	MR	2023.1.0	59.962679223495506
mr_images/4_b.png	mr_images/4_a_z_315.png	right	ccw	45	NA	NA	NA	NA	0	114	114	110	572.7489301001187	NA	NA	NA	NA	573.2824171001557	573.2824171001557	left	1	1.26804111147124	NA	NA	mfi	1	2026-02-20_15h36.46.495	MR	2023.1.0	59.962679223495506
mr_images/7_b.png	mr_images/7_b_z_225.png	left	ccw	135	NA	NA	NA	NA	0	115	115	191	574.7485981001519	NA	NA	NA	NA	575.2818891999777	575.2818891999777	right	0	2.61168420200285	NA	NA	mfi	1	2026-02-20_15h36.46.495	MR	2023.1.0	59.962679223495506
mr_images/9_b.png	mr_images/9_b_z_90.png	left	cw	90	NA	NA	NA	NA	0	116	116	209	578.3314285001252	NA	NA	NA	NA	578.8647549001034	578.8647549001034	right	0	1.93752009093853	NA	NA	mfi	1	2026-02-20_15h36.46.495	MR	2023.1.0	59.962679223495506
mr_images/1_a.png	mr_images/1_b_z_270.png	right	ccw	90	NA	NA	NA	NA	0	117	117	6	580.8644838000182	NA	NA	NA	NA	581.3975974000059	581.3975974000059	left	1	1.7896187788142	NA	NA	mfi	1	2026-02-20_15h36.46.495	MR	2023.1.0	59.962679223495506
mr_images/3_a.png	mr_images/3_b_z_135.png	right	cw	135	NA	NA	NA	NA	0	118	118	80	583.3807284000795	NA	NA	NA	NA	583.9143847001251	583.9143847001251	left	0	1.91065104903317	NA	NA	mfi	1	2026-02-20_15h36.46.495	MR	2023.1.0	59.962679223495506
mr_images/5_b.png	mr_images/5_a_z_45.png	right	cw	45	NA	NA	NA	NA	0	119	119	132	586.2303919999395	NA	NA	NA	NA	586.7830296000466	586.7830296000466	left	0	2.6320766296088	NA	NA	mfi	1	2026-02-20_15h36.46.495	MR	2023.1.0	59.962679223495506
mr_images/5_b.png	mr_images/5_b_z_225.png	left	ccw	135	NA	NA	NA	NA	0	120	120	143	589.5841516000219	NA	NA	NA	NA	590.1151829001028	590.1151829001028	right	0	2.87531400055016	NA	NA	mfi	1	2026-02-20_15h36.46.495	MR	2023.1.0	59.962679223495506
mr_images/4_b.png	mr_images/4_b_z_315.png	left	ccw	45	NA	NA	NA	NA	0	121	121	111	593.2502957000397	NA	NA	NA	NA	593.7962704999372	593.7962704999372	right	0	2.02893466643273	NA	NA	mfi	1	2026-02-20_15h36.46.495	MR	2023.1.0	59.962679223495506
mr_images/7_b.png	mr_images/7_a_z_90.png	right	cw	90	NA	NA	NA	NA	0	122	122	184	595.9125562999398	NA	NA	NA	NA	596.4457360999659	596.4457360999659	left	1	1.33556929585381	NA	NA	mfi	1	2026-02-20_15h36.46.495	MR	2023.1.0	59.962679223495506
mr_images/11_a.png	mr_images/11_b_z_90.png	right	cw	90	NA	NA	NA	NA	0	123	123	28	598.3453786000609	NA	NA	NA	NA	598.8786093001254	598.8786093001254	left	0	3.65173582916288	NA	NA	mfi	1	2026-02-20_15h36.46.495	MR	2023.1.0	59.962679223495506
mr_images/9_b.png	mr_images/9_b_z_315.png	left	ccw	45	NA	NA	NA	NA	0	124	124	207	602.7947271000594	NA	NA	NA	NA	603.3326352001168	603.3326352001168	left	1	4.17000101295127	NA	NA	mfi	1	2026-02-20_15h36.46.495	MR	2023.1.0	59.962679223495506
mr_images/11_a.png	mr_images/11_a_z_135.png	left	cw	135	NA	NA	NA	NA	0	125	125	33	607.8316558999941	NA	NA	NA	NA	608.3617623001337	608.3617623001337	right	0	3.63416654974499	NA	NA	mfi	1	2026-02-20_15h36.46.495	MR	2023.1.0	59.962679223495506
mr_images/7_a.png	mr_images/7_b_z_135.png	right	cw	135	NA	NA	NA	NA	0	126	126	176	612.1938515000511	NA	NA	NA	NA	612.7264281001408	612.7264281001408	left	0	1.52580330294969	NA	NA	mfi	1	2026-02-20_15h36.46.495	MR	2023.1.0	59.962679223495506
mr_images/5_b.png	mr_images/5_b_z_270.png	left	ccw	90	NA	NA	NA	NA	0	127	127	139	614.3431528001092	NA	NA	NA	NA	614.8991797999479	614.8991797999479	left	1	1.2784408375241	NA	NA	mfi	1	2026-02-20_15h36.46.495	MR	2023.1.0	59.962679223495506
mr_images/6_b.png	mr_images/6_b_z_45.png	left	cw	45	NA	NA	NA	NA	0	128	128	157	616.8094498000573	NA	NA	NA	NA	NA	617.3427427001297	right	0	2.05139836773138	NA	NA	mfi	1	2026-02-20_15h36.46.495	MR	2023.1.0	59.962679223495506
mr_images/7_b.png	mr_images/7_b_z_270.png	left	ccw	90	NA	NA	NA	NA	0	129	129	187	619.8923194000963	NA	NA	NA	NA	620.4256212001201	620.4256212001201	right	1	1.93526416907135	NA	NA	mfi	1	2026-02-20_15h36.46.495	MR	2023.1.0	59.962679223495506
mr_images/9_a.png	mr_images/9_b_z_270.png	right	ccw	90	NA	NA	NA	NA	0	130	130	198	622.6586551000364	NA	NA	NA	NA	623.2251800000668	623.2251800000668	left	0	1.85132671495662	NA	NA	mfi	1	2026-02-20_15h36.46.495	MR	2023.1.0	59.962679223495506
mr_images/12_a.png	mr_images/12_a_z_225.png	left	ccw	135	NA	NA	NA	NA	0	131	131	59	625.1082848999649	NA	NA	NA	NA	625.6416547000408	625.6416547000408	left	1	2.4101771805957	NA	NA	mfi	1	2026-02-20_15h36.46.495	MR	2023.1.0	59.962679223495506
mr_images/11_b.png	mr_images/11_a_z_315.png	right	ccw	45	NA	NA	NA	NA	0	132	132	38	628.6412772000767	NA	NA	NA	NA	629.1745617000852	629.1745617000852	left	0	1.56560444332162	NA	NA	mfi	1	2026-02-20_15h36.46.495	MR	2023.1.0	59.962679223495506
mr_images/6_a.png	mr_images/6_b_z_225.png	right	ccw	135	NA	NA	NA	NA	0	133	133	154	631.1077775999438	NA	NA	NA	NA	631.673991000047	631.673991000047	left	0	1.75777209148059	NA	NA	mfi	1	2026-02-20_15h36.46.495	MR	2023.1.0	59.962679223495506
mr_images/5_a.png	mr_images/5_a_z_315.png	left	ccw	45	NA	NA	NA	NA	0	134	134	123	633.7071031001396	NA	NA	NA	NA	634.2402864999603	634.2402864999603	right	0	3.05716894826023	NA	NA	mfi	1	2026-02-20_15h36.46.495	MR	2023.1.0	59.962679223495506
mr_images/7_b.png	mr_images/7_a_z_135.png	right	cw	135	NA	NA	NA	NA	0	135	135	188	637.7067795000039	NA	NA	NA	NA	638.2414737001527	638.2414737001527	left	0	1.72474052138369	NA	NA	mfi	1	2026-02-20_15h36.46.495	MR	2023.1.0	59.962679223495506
mr_images/11_a.png	mr_images/11_b_z_315.png	right	ccw	45	NA	NA	NA	NA	0	136	136	26	640.4103268000763	NA	NA	NA	NA	640.9733224001247	640.9733224001247	left	0	1.79453304634431	NA	NA	mfi	1	2026-02-20_15h36.46.495	MR	2023.1.0	59.962679223495506
mr_images/9_a.png	mr_images/9_a_z_270.png	left	ccw	90	NA	NA	NA	NA	0	137	137	199	643.2061189999804	NA	NA	NA	NA	643.7388641000725	643.7388641000725	left	1	2.95608381221454	NA	NA	mfi	1	2026-02-20_15h36.46.495	MR	2023.1.0	59.962679223495506
mr_images/11_b.png	mr_images/11_a_z_270.png	right	ccw	90	NA	NA	NA	NA	0	138	138	42	647.0053497001063	NA	NA	NA	NA	647.5718151000328	647.5718151000328	left	0	2.32895508095286	NA	NA	mfi	1	2026-02-20_15h36.46.495	MR	2023.1.0	59.962679223495506
mr_images/6_a.png	mr_images/6_b_z_90.png	right	cw	90	NA	NA	NA	NA	0	139	139	148	650.1048713000491	NA	NA	NA	NA	650.6379551000427	650.6379551000427	left	0	2.82782895118434	NA	NA	mfi	1	2026-02-20_15h36.46.495	MR	2023.1.0	59.962679223495506
mr_images/4_b.png	mr_images/4_a_z_90.png	right	cw	90	NA	NA	NA	NA	0	140	140	112	653.8377871001139	NA	NA	NA	NA	654.3708798000589	654.3708798000589	left	1	1.70510005644267	NA	NA	mfi	1	2026-02-20_15h36.46.495	MR	2023.1.0	59.962679223495506
mr_images/1_b.png	mr_images/1_a_z_315.png	right	ccw	45	NA	NA	NA	NA	0	141	141	14	656.3706573999953	NA	NA	NA	NA	656.9217280000448	656.9217280000448	left	0	1.23145784363788	NA	NA	mfi	1	2026-02-20_15h36.46.495	MR	2023.1.0	59.962679223495506
mr_images/7_b.png	mr_images/7_a_z_45.png	right	cw	45	NA	NA	NA	NA	0	142	142	180	658.603678500047	NA	NA	NA	NA	659.1702560000122	659.1702560000122	left	0	1.01748434933767	NA	NA	mfi	1	2026-02-20_15h36.46.495	MR	2023.1.0	59.962679223495506
mr_images/5_b.png	mr_images/5_a_z_135.png	right	cw	135	NA	NA	NA	NA	0	143	143	140	660.6701919999905	NA	NA	NA	NA	661.2033204000909	661.2033204000909	left	0	1.76600779443646	NA	NA	mfi	1	2026-02-20_15h36.46.495	MR	2023.1.0	59.962679223495506
mr_images/11_a.png	mr_images/11_a_z_270.png	left	ccw	90	NA	NA	NA	NA	0	144	144	31	663.0694929999299	NA	NA	NA	NA	663.6071502999403	663.6071502999403	right	0	3.12666882111253	NA	NA	mfi	1	2026-02-20_15h36.46.495	MR	2023.1.0	59.962679223495506
mr_images/11_a.png	mr_images/11_b_z_135.png	right	cw	135	NA	NA	NA	NA	0	145	145	32	667.1900420000311	NA	NA	NA	NA	667.7522545999382	667.7522545999382	left	1	2.71513154668116	NA	NA	mfi	1	2026-02-20_15h36.46.495	MR	2023.1.0	59.962679223495506
mr_images/9_b.png	mr_images/9_a_z_90.png	right	cw	90	NA	NA	NA	NA	0	146	146	208	670.6020422000438	NA	NA	NA	NA	671.123958399985	671.123958399985	left	1	1.62597959258105	NA	NA	mfi	1	2026-02-20_15h36.46.495	MR	2023.1.0	59.962679223495506
mr_images/4_a.png	mr_images/4_b_z_315.png	right	ccw	45	NA	NA	NA	NA	0	147	147	98	673.272529500071	NA	NA	NA	NA	673.8015240000095	673.8015240000095	right	1	1.33273084923339	NA	NA	mfi	1	2026-02-20_15h36.46.495	MR	2023.1.0	59.962679223495506
mr_images/1_b.png	mr_images/1_a_z_225.png	right	ccw	135	NA	NA	NA	NA	0	148	148	22	675.5012839001138	NA	NA	NA	NA	676.0345785000827	676.0345785000827	left	0	2.26950740893184	NA	NA	mfi	1	2026-02-20_15h36.46.495	MR	2023.1.0	59.962679223495506
mr_images/9_a.png	mr_images/9_b_z_45.png	right	cw	45	NA	NA	NA	NA	0	149	149	192	678.4175706999376	NA	NA	NA	NA	678.9508442999795	678.9508442999795	left	0	1.81208016037199	NA	NA	mfi	1	2026-02-20_15h36.46.495	MR	2023.1.0	59.962679223495506
mr_images/12_a.png	mr_images/12_a_z_270.png	left	ccw	90	NA	NA	NA	NA	0	150	150	55	680.9673311000224	NA	NA	NA	NA	681.5004239000846	681.5004239000846	right	1	2.46867853279838	NA	NA	mfi	1	2026-02-20_15h36.46.495	MR	2023.1.0	59.962679223495506
mr_images/5_a.png	mr_images/5_b_z_270.png	right	ccw	90	NA	NA	NA	NA	0	151	151	126	684.2003770000301	NA	NA	NA	NA	684.7333490001038	684.7333490001038	left	0	2.46917210644801	NA	NA	mfi	1	2026-02-20_15h36.46.495	MR	2023.1.0	59.962679223495506
mr_images/5_a.png	mr_images/5_b_z_315.png	right	ccw	45	NA	NA	NA	NA	0	152	152	122	687.5162897999398	NA	NA	NA	NA	688.0863695000298	688.0863695000298	left	0	1.40169891530214	NA	NA	mfi	1	2026-02-20_15h36.46.495	MR	2023.1.0	59.962679223495506
mr_images/1_a.png	mr_images/1_b_z_315.png	right	ccw	45	NA	NA	NA	NA	0	153	153	2	689.8202575999312	NA	NA	NA	NA	690.350439999951	690.350439999951	left	0	1.69826451967991	NA	NA	mfi	1	2026-02-20_15h36.46.495	MR	2023.1.0	59.962679223495506
mr_images/1_a.png	mr_images/1_b_z_135.png	right	cw	135	NA	NA	NA	NA	0	154	154	8	692.6322776000015	NA	NA	NA	NA	693.165499499999	693.165499499999	right	1	2.69093339765873	NA	NA	mfi	1	2026-02-20_15h36.46.495	MR	2023.1.0	59.962679223495506
mr_images/6_a.png	mr_images/6_b_z_270.png	right	ccw	90	NA	NA	NA	NA	0	155	155	150	696.0984531999566	NA	NA	NA	NA	696.631634300109	696.631634300109	left	0	1.88021999013528	NA	NA	mfi	1	2026-02-20_15h36.46.495	MR	2023.1.0	59.962679223495506
mr_images/3_b.png	mr_images/3_a_z_135.png	right	cw	135	NA	NA	NA	NA	0	156	156	92	698.9480359000154	NA	NA	NA	NA	699.5146185001358	699.5146185001358	left	0	1.78682486564944	NA	NA	mfi	1	2026-02-20_15h36.46.495	MR	2023.1.0	59.962679223495506
mr_images/1_b.png	mr_images/1_b_z_45.png	left	cw	45	NA	NA	NA	NA	0	157	157	13	701.5311386000831	NA	NA	NA	NA	702.0690454000141	702.0690454000141	right	0	2.00410573880131	NA	NA	mfi	1	2026-02-20_15h36.46.495	MR	2023.1.0	59.962679223495506
mr_images/1_b.png	mr_images/1_a_z_45.png	right	cw	45	NA	NA	NA	NA	0	158	158	12	704.3015741999261	NA	NA	NA	NA	704.847853800049	704.847853800049	left	0	2.07388964367109	NA	NA	mfi	1	2026-02-20_15h36.46.495	MR	2023.1.0	59.962679223495506
mr_images/5_b.png	mr_images/5_b_z_45.png	left	cw	45	NA	NA	NA	NA	0	159	159	133	707.3304006999824	NA	NA	NA	NA	707.8635083001573	707.8635083001573	right	1	1.44302017262377	NA	NA	mfi	1	2026-02-20_15h36.46.495	MR	2023.1.0	59.962679223495506
mr_images/6_a.png	mr_images/6_a_z_270.png	left	ccw	90	NA	NA	NA	NA	0	160	160	151	709.6965608000755	NA	NA	NA	NA	710.2631282000802	710.2631282000802	right	0	1.77006501922379	NA	NA	mfi	1	2026-02-20_15h36.46.495	MR	2023.1.0	59.962679223495506
mr_images/6_a.png	mr_images/6_a_z_225.png	left	ccw	135	NA	NA	NA	NA	0	161	161	155	712.1629037000239	NA	NA	NA	NA	712.6958010999952	712.6958010999952	right	0	1.83599727967419	NA	NA	mfi	1	2026-02-20_15h36.46.495	MR	2023.1.0	59.962679223495506
mr_images/12_a.png	mr_images/12_b_z_225.png	right	ccw	135	NA	NA	NA	NA	0	162	162	58	714.8292704999913	NA	NA	NA	NA	715.3624410999473	715.3624410999473	right	1	2.47453673085554	NA	NA	mfi	1	2026-02-20_15h36.46.495	MR	2023.1.0	59.962679223495506
mr_images/12_b.png	mr_images/12_b_z_90.png	left	cw	90	NA	NA	NA	NA	0	163	163	65	717.9953739999328	NA	NA	NA	NA	718.5622767999303	718.5622767999303	left	1	1.49136654245772	NA	NA	mfi	1	2026-02-20_15h36.46.495	MR	2023.1.0	59.962679223495506
mr_images/9_a.png	mr_images/9_b_z_135.png	right	cw	135	NA	NA	NA	NA	0	164	164	200	720.2617740000132	NA	NA	NA	NA	720.7949834000319	720.7949834000319	left	0	1.09877803542707	NA	NA	mfi	1	2026-02-20_15h36.46.495	MR	2023.1.0	59.962679223495506
mr_images/3_b.png	mr_images/3_a_z_315.png	right	ccw	45	NA	NA	NA	NA	0	165	165	86	722.5114913000725	NA	NA	NA	NA	723.0446377000771	723.0446377000771	left	0	1.52016936706319	NA	NA	mfi	1	2026-02-20_15h36.46.495	MR	2023.1.0	59.962679223495506
mr_images/3_a.png	mr_images/3_b_z_315.png	right	ccw	45	NA	NA	NA	NA	0	166	166	74	724.860970400041	NA	NA	NA	NA	725.3836378999986	725.3836378999986	left	0	1.69509367521337	NA	NA	mfi	1	2026-02-20_15h36.46.495	MR	2023.1.0	59.962679223495506
mr_images/1_a.png	mr_images/1_a_z_90.png	left	cw	90	NA	NA	NA	NA	0	167	167	5	727.265066199936	NA	NA	NA	NA	727.7947069001384	727.7947069001384	right	0	1.65533333948094	NA	NA	mfi	1	2026-02-20_15h36.46.495	MR	2023.1.0	59.962679223495506
mr_images/12_b.png	mr_images/12_b_z_45.png	left	cw	45	NA	NA	NA	NA	0	168	168	61	729.943673599977	NA	NA	NA	NA	730.4942964999937	730.4942964999937	right	0	1.44520861522769	NA	NA	mfi	1	2026-02-20_15h36.46.495	MR	2023.1.0	59.962679223495506
mr_images/11_b.png	mr_images/11_a_z_225.png	right	ccw	135	NA	NA	NA	NA	0	169	169	46	732.0934151001275	NA	NA	NA	NA	732.6264768999536	732.6264768999536	left	0	1.32264335642813	NA	NA	mfi	1	2026-02-20_15h36.46.495	MR	2023.1.0	59.962679223495506
mr_images/12_b.png	mr_images/12_b_z_135.png	left	cw	135	NA	NA	NA	NA	0	170	170	69	734.3435223000124	NA	NA	NA	NA	734.8763820999302	734.8763820999302	right	0	1.31325868860871	NA	NA	mfi	1	2026-02-20_15h36.46.495	MR	2023.1.0	59.962679223495506
mr_images/11_b.png	mr_images/11_b_z_135.png	left	cw	135	NA	NA	NA	NA	0	171	171	45	736.4594312000554	NA	NA	NA	NA	736.9758766000159	736.9758766000159	right	0	3.28551456553066	NA	NA	mfi	1	2026-02-20_15h36.46.495	MR	2023.1.0	59.962679223495506
mr_images/7_b.png	mr_images/7_a_z_225.png	right	ccw	135	NA	NA	NA	NA	0	172	172	190	740.2923570000567	NA	NA	NA	NA	740.8607852000277	740.8607852000277	left	0	1.72064078805782	NA	NA	mfi	1	2026-02-20_15h36.46.495	MR	2023.1.0	59.962679223495506
mr_images/6_b.png	mr_images/6_b_z_225.png	left	ccw	135	NA	NA	NA	NA	0	173	173	167	743.0752703000326	NA	NA	NA	NA	743.6086093999911	743.6086093999911	right	0	1.67029494628834	NA	NA	mfi	1	2026-02-20_15h36.46.495	MR	2023.1.0	59.962679223495506
mr_images/6_b.png	mr_images/6_a_z_270.png	right	ccw	90	NA	NA	NA	NA	0	174	174	162	745.5748825001065	NA	NA	NA	NA	746.1080944000278	746.1080944000278	left	0	1.31265187588913	NA	NA	mfi	1	2026-02-20_15h36.46.495	MR	2023.1.0	59.962679223495506
mr_images/4_b.png	mr_images/4_b_z_90.png	left	cw	90	NA	NA	NA	NA	0	175	175	113	747.9412760001142	NA	NA	NA	NA	748.4744766999502	748.4744766999502	right	1	1.84930800444726	NA	NA	mfi	1	2026-02-20_15h36.46.495	MR	2023.1.0	59.962679223495506
mr_images/5_b.png	mr_images/5_a_z_225.png	right	ccw	135	NA	NA	NA	NA	0	176	176	142	750.4576101999264	NA	NA	NA	NA	751.024154300103	751.024154300103	left	1	1.63588082117428	NA	NA	mfi	1	2026-02-20_15h36.46.495	MR	2023.1.0	59.962679223495506
mr_images/11_b.png	mr_images/11_b_z_315.png	left	ccw	45	NA	NA	NA	NA	0	177	177	39	752.9409138001502	NA	NA	NA	NA	753.4748317000922	753.4748317000922	left	1	1.42071710326749	NA	NA	mfi	1	2026-02-20_15h36.46.495	MR	2023.1.0	59.962679223495506
mr_images/4_b.png	mr_images/4_b_z_135.png	left	cw	135	NA	NA	NA	NA	0	178	178	117	755.4901866000146	NA	NA	NA	NA	756.0245453999378	756.0245453999378	right	0	1.38277386554339	NA	NA	mfi	1	2026-02-20_15h36.46.495	MR	2023.1.0	59.962679223495506
mr_images/9_a.png	mr_images/9_b_z_315.png	right	ccw	45	NA	NA	NA	NA	0	179	179	194	757.9899180000648	NA	NA	NA	NA	758.5234018000774	758.5234018000774	left	0	1.41530959027967	NA	NA	mfi	1	2026-02-20_15h36.46.495	MR	2023.1.0	59.962679223495506
mr_images/1_a.png	mr_images/1_b_z_45.png	right	cw	45	NA	NA	NA	NA	0	180	180	0	760.0729183000512	NA	NA	NA	NA	760.6061675001401	760.6061675001401	left	0	1.67395006587837	NA	NA	mfi	1	2026-02-20_15h36.46.495	MR	2023.1.0	59.962679223495506
mr_images/11_b.png	mr_images/11_a_z_45.png	right	cw	45	NA	NA	NA	NA	0	181	181	36	762.505932	NA	NA	NA	NA	763.0392040000297	763.0392040000297	left	0	0.930941503731514	NA	NA	mfi	1	2026-02-20_15h36.46.495	MR	2023.1.0	59.962679223495506
mr_images/9_b.png	mr_images/9_b_z_270.png	left	ccw	90	NA	NA	NA	NA	0	182	182	211	764.5889012999833	NA	NA	NA	NA	765.1222429999616	765.1222429999616	right	0	1.1781993162396	NA	NA	mfi	1	2026-02-20_15h36.46.495	MR	2023.1.0	59.962679223495506
mr_images/12_a.png	mr_images/12_b_z_45.png	right	cw	45	NA	NA	NA	NA	0	183	183	48	766.7718839000445	NA	NA	NA	NA	767.2884271999355	767.2884271999355	left	0	1.61760467171454	NA	NA	mfi	1	2026-02-20_15h36.46.495	MR	2023.1.0	59.962679223495506
mr_images/12_a.png	mr_images/12_b_z_90.png	right	cw	90	NA	NA	NA	NA	0	184	184	52	768.9883241001517	NA	NA	NA	NA	769.5056519000791	769.5056519000791	left	0	1.57912574422604	NA	NA	mfi	1	2026-02-20_15h36.46.495	MR	2023.1.0	59.962679223495506
mr_images/3_a.png	mr_images/3_b_z_270.png	right	ccw	90	NA	NA	NA	NA	0	185	185	78	771.3547110999934	NA	NA	NA	NA	771.9212953001261	771.9212953001261	left	0	1.82872307287912	NA	NA	mfi	1	2026-02-20_15h36.46.495	MR	2023.1.0	59.962679223495506
mr_images/5_a.png	mr_images/5_a_z_225.png	left	ccw	135	NA	NA	NA	NA	0	186	186	131	774.1881600001361	NA	NA	NA	NA	774.7213642001152	774.7213642001152	right	0	2.36317705633016	NA	NA	mfi	1	2026-02-20_15h36.46.495	MR	2023.1.0	59.962679223495506
mr_images/12_b.png	mr_images/12_a_z_315.png	right	ccw	45	NA	NA	NA	NA	0	187	187	62	777.2204980000388	NA	NA	NA	NA	777.7538246000186	777.7538246000186	left	0	0.838828726690772	NA	NA	mfi	1	2026-02-20_15h36.46.495	MR	2023.1.0	59.962679223495506
mr_images/5_a.png	mr_images/5_a_z_270.png	left	ccw	90	NA	NA	NA	NA	0	188	188	127	779.2202576999553	NA	NA	NA	NA	779.7533692000434	779.7533692000434	right	0	1.14591792952271	NA	NA	mfi	1	2026-02-20_15h36.46.495	MR	2023.1.0	59.962679223495506
mr_images/9_a.png	mr_images/9_a_z_135.png	left	cw	135	NA	NA	NA	NA	0	189	189	201	781.3033438001294	NA	NA	NA	NA	781.839934800053	781.839934800053	right	0	1.73485098739757	NA	NA	mfi	1	2026-02-20_15h36.46.495	MR	2023.1.0	59.962679223495506
mr_images/12_a.png	mr_images/12_b_z_270.png	right	ccw	90	NA	NA	NA	NA	0	190	190	54	783.9404973001219	NA	NA	NA	NA	784.4864958999678	784.4864958999678	left	0	1.04177144129827	NA	NA	mfi	1	2026-02-20_15h36.46.495	MR	2023.1.0	59.962679223495506
mr_images/7_a.png	mr_images/7_a_z_225.png	left	ccw	135	NA	NA	NA	NA	0	191	191	179	786.1527289000805	NA	NA	NA	NA	786.6858415000606	786.6858415000606	right	0	1.07584343291525	NA	NA	mfi	1	2026-02-20_15h36.46.495	MR	2023.1.0	59.962679223495506
mr_images/3_b.png	mr_images/3_b_z_45.png	left	cw	45	NA	NA	NA	NA	0	192	192	85	788.1359125999734	NA	NA	NA	NA	788.7022325000726	788.7022325000726	right	1	1.24417938009273	NA	NA	mfi	1	2026-02-20_15h36.46.495	MR	2023.1.0	59.962679223495506
mr_images/7_a.png	mr_images/7_b_z_90.png	right	cw	90	NA	NA	NA	NA	0	193	193	172	790.268773799995	NA	NA	NA	NA	790.8018951001577	790.8018951001577	left	1	0.970396191861627	NA	NA	mfi	1	2026-02-20_15h36.46.495	MR	2023.1.0	59.962679223495506
mr_images/3_a.png	mr_images/3_b_z_45.png	right	cw	45	NA	NA	NA	NA	0	194	194	72	792.3184361001477	NA	NA	NA	NA	792.8515312999953	792.8515312999953	left	0	1.2347311540889	NA	NA	mfi	1	2026-02-20_15h36.46.495	MR	2023.1.0	59.962679223495506
mr_images/12_a.png	mr_images/12_a_z_45.png	left	cw	45	NA	NA	NA	NA	0	195	195	49	794.2016674999613	NA	NA	NA	NA	794.7352114999667	794.7352114999667	right	0	1.85534830910685	NA	NA	mfi	1	2026-02-20_15h36.46.495	MR	2023.1.0	59.962679223495506
mr_images/11_b.png	mr_images/11_a_z_90.png	right	cw	90	NA	NA	NA	NA	0	196	196	40	797.0678119999357	NA	NA	NA	NA	797.6009609000757	797.6009609000757	right	1	2.00283386864657	NA	NA	mfi	1	2026-02-20_15h36.46.495	MR	2023.1.0	59.962679223495506
mr_images/5_b.png	mr_images/5_b_z_90.png	left	cw	90	NA	NA	NA	NA	0	197	197	137	799.7174281000625	NA	NA	NA	NA	800.2838367000222	800.2838367000222	right	0	1.55225630240519	NA	NA	mfi	1	2026-02-20_15h36.46.495	MR	2023.1.0	59.962679223495506
mr_images/7_a.png	mr_images/7_a_z_45.png	left	cw	45	NA	NA	NA	NA	0	198	198	169	801.967152700061	NA	NA	NA	NA	802.500254600076	802.500254600076	right	0	1.96980868758781	NA	NA	mfi	1	2026-02-20_15h36.46.495	MR	2023.1.0	59.962679223495506
mr_images/7_a.png	mr_images/7_b_z_315.png	right	ccw	45	NA	NA	NA	NA	0	199	199	170	805.0833544000052	NA	NA	NA	NA	805.6165251000784	805.6165251000784	right	1	2.85977768578824	NA	NA	mfi	1	2026-02-20_15h36.46.495	MR	2023.1.0	59.962679223495506
mr_images/3_b.png	mr_images/3_b_z_270.png	left	ccw	90	NA	NA	NA	NA	0	200	200	91	808.5329080999363	NA	NA	NA	NA	809.0660604999866	809.0660604999866	right	0	2.01345524741323	NA	NA	mfi	1	2026-02-20_15h36.46.495	MR	2023.1.0	59.962679223495506
mr_images/12_b.png	mr_images/12_a_z_45.png	right	cw	45	NA	NA	NA	NA	0	201	201	60	811.4990847001318	NA	NA	NA	NA	812.0323159000836	812.0323159000836	left	0	1.17038681321224	NA	NA	mfi	1	2026-02-20_15h36.46.495	MR	2023.1.0	59.962679223495506
mr_images/6_a.png	mr_images/6_b_z_315.png	right	ccw	45	NA	NA	NA	NA	0	202	202	146	813.7488369001076	NA	NA	NA	NA	814.2820568000898	814.2820568000898	right	1	2.00846913370966	NA	NA	mfi	1	2026-02-20_15h36.46.495	MR	2023.1.0	59.962679223495506
mr_images/3_a.png	mr_images/3_a_z_135.png	left	cw	135	NA	NA	NA	NA	0	203	203	81	816.8150251000188	NA	NA	NA	NA	817.3482375000603	817.3482375000603	right	0	2.08070602628359	NA	NA	mfi	1	2026-02-20_15h36.46.495	MR	2023.1.0	59.962679223495506
mr_images/1_a.png	mr_images/1_a_z_315.png	left	ccw	45	NA	NA	NA	NA	0	204	204	3	819.4980921000242	NA	NA	NA	NA	820.0311751000118	820.0311751000118	right	0	2.23922393031539	NA	NA	mfi	1	2026-02-20_15h36.46.495	MR	2023.1.0	59.962679223495506
mr_images/3_a.png	mr_images/3_a_z_90.png	left	cw	90	NA	NA	NA	NA	0	205	205	77	822.514302500058	NA	NA	NA	NA	823.047447900055	823.047447900055	right	0	1.88833063971005	NA	NA	mfi	1	2026-02-20_15h36.46.495	MR	2023.1.0	59.962679223495506
mr_images/3_b.png	mr_images/3_b_z_90.png	left	cw	90	NA	NA	NA	NA	0	206	206	89	825.113956999965	NA	NA	NA	NA	825.633705599932	825.633705599932	right	0	2.43674587287644	NA	NA	mfi	1	2026-02-20_15h36.46.495	MR	2023.1.0	59.962679223495506
mr_images/11_a.png	mr_images/11_b_z_270.png	right	ccw	90	NA	NA	NA	NA	0	207	207	30	828.134355599992	NA	NA	NA	NA	828.6800468999427	828.6800468999427	left	0	1.53532188206294	NA	NA	mfi	1	2026-02-20_15h36.46.495	MR	2023.1.0	59.962679223495506
mr_images/4_a.png	mr_images/4_a_z_270.png	left	ccw	90	NA	NA	NA	NA	0	208	208	103	830.3964776999783	NA	NA	NA	NA	830.9296147001442	830.9296147001442	right	0	1.35633441510346	NA	NA	mfi	1	2026-02-20_15h36.46.495	MR	2023.1.0	59.962679223495506
mr_images/5_a.png	mr_images/5_b_z_90.png	right	cw	90	NA	NA	NA	NA	0	209	209	124	832.7796040000394	NA	NA	NA	NA	833.3127262000926	833.3127262000926	left	0	1.60692345051278	NA	NA	mfi	1	2026-02-20_15h36.46.495	MR	2023.1.0	59.962679223495506
mr_images/7_a.png	mr_images/7_a_z_90.png	left	cw	90	NA	NA	NA	NA	0	210	210	173	835.3791191999335	NA	NA	NA	NA	835.9291531001218	835.9291531001218	right	0	1.2261999331161	NA	NA	mfi	1	2026-02-20_15h36.46.495	MR	2023.1.0	59.962679223495506
mr_images/5_a.png	mr_images/5_a_z_45.png	left	cw	45	NA	NA	NA	NA	0	211	211	121	837.5121776000597	NA	NA	NA	NA	838.0453586000949	838.0453586000949	right	0	1.47056091551077	NA	NA	mfi	1	2026-02-20_15h36.46.495	MR	2023.1.0	59.962679223495506
mr_images/5_b.png	mr_images/5_b_z_315.png	left	ccw	45	NA	NA	NA	NA	0	212	212	135	840.0285014000256	NA	NA	NA	NA	840.5617057001218	840.5617057001218	right	0	0.872844816268691	NA	NA	mfi	1	2026-02-20_15h36.46.495	MR	2023.1.0	59.962679223495506
mr_images/6_b.png	mr_images/6_a_z_225.png	right	ccw	135	NA	NA	NA	NA	0	213	213	166	841.8948945000302	NA	NA	NA	NA	842.4281276001129	842.4281276001129	right	1	2.45730281735224	NA	NA	mfi	1	2026-02-20_15h36.46.495	MR	2023.1.0	59.962679223495506
mr_images/1_a.png	mr_images/1_a_z_45.png	left	cw	45	NA	NA	NA	NA	0	214	214	1	845.1444192000199	NA	NA	NA	NA	845.6776773999445	845.6776773999445	right	0	1.27040118065712	NA	NA	mfi	1	2026-02-20_15h36.46.495	MR	2023.1.0	59.962679223495506
mr_images/11_a.png	mr_images/11_b_z_45.png	right	cw	45	NA	NA	NA	NA	0	215	215	24	847.4773812999483	NA	NA	NA	NA	848.0106772999279	848.0106772999279	left	0	1.88653023861126	NA	NA	mfi	1	2026-02-20_15h36.46.495	MR	2023.1.0	59.962679223495506
NA	NA	NA	NA	NA	NA	NA	NA	NA	NA	NA	NA	NA	NA	NA	NA	NA	NA	NA	NA	NA	NA	NA	850.2937908000313	852.2934819001239	NA	NA	NA	NA	NA	NA
