imagefile	stimfile	corrAns	MRdir	angle	training.thisRepN	training.thisTrialN	training.thisN	training.thisIndex	mentalrot_trials.thisRepN	mentalrot_trials.thisTrialN	mentalrot_trials.thisN	mentalrot_trials.thisIndex	blank.started	mr_answ_2.started	mr_answ_2.keys	mr_answ_2.corr	mr_answ_2.rt	blank.stopped	mr_answ.started	mr_answ.keys	mr_answ.corr	mr_answ.rt	byebye_text.started	participant	session	date	expName	psychopyVersion	frameRate	...31
mr_images/5_a.png	mr_images/5_a_z_45.png	left	cw	45	0	0	0	121	NA	NA	NA	NA	94.34768579993396	94.89792020013556	None	0	NA	NA	NA	NA	NA	NA	NA	atn	001	2026-03-10_18h07.12.327	MR	2023.1.0	60.00171604817558	NA
mr_images/9_a.png	mr_images/9_b_z_225.png	right	ccw	135	0	1	1	202	NA	NA	NA	NA	99.78054289985448	100.36365959979594	left	0	4.51693610008806	NA	NA	NA	NA	NA	NA	atn	001	2026-03-10_18h07.12.327	MR	2023.1.0	60.00171604817558	NA
mr_images/4_a.png	mr_images/4_b_z_315.png	right	ccw	45	0	2	2	98	NA	NA	NA	NA	104.91319119976832	105.48445100011304	right	1	2.528340599965304	105.48445100011304	NA	NA	NA	NA	NA	atn	001	2026-03-10_18h07.12.327	MR	2023.1.0	60.00171604817558	NA
mr_images/7_b.png	mr_images/7_b_z_90.png	left	cw	90	0	3	3	185	NA	NA	NA	NA	108.03355359984562	108.6126774000004	None	0	NA	108.6126774000004	NA	NA	NA	NA	NA	atn	001	2026-03-10_18h07.12.327	MR	2023.1.0	60.00171604817558	NA
mr_images/5_a.png	mr_images/5_b_z_225.png	right	ccw	135	0	4	4	130	NA	NA	NA	NA	113.54535660007969	114.09655290003866	None	0	NA	NA	NA	NA	NA	NA	NA	atn	001	2026-03-10_18h07.12.327	MR	2023.1.0	60.00171604817558	NA
mr_images/5_b.png	mr_images/5_b_z_225.png	left	ccw	135	NA	NA	NA	NA	0	0	0	143	153.63946580002084	NA	NA	NA	NA	NA	154.1228839000687	right	0	4.560419499874115	NA	atn	001	2026-03-10_18h07.12.327	MR	2023.1.0	60.00171604817558	NA
mr_images/4_a.png	mr_images/4_a_z_135.png	left	cw	135	NA	NA	NA	NA	0	1	1	105	158.70558049995452	NA	NA	NA	NA	159.27231890009716	159.27231890009716	right	0	2.644870499614626	NA	atn	001	2026-03-10_18h07.12.327	MR	2023.1.0	60.00171604817558	NA
mr_images/12_a.png	mr_images/12_a_z_225.png	left	ccw	135	NA	NA	NA	NA	0	2	2	59	161.93845750018954	NA	NA	NA	NA	162.5217426000163	162.5217426000163	None	0	NA	NA	atn	001	2026-03-10_18h07.12.327	MR	2023.1.0	60.00171604817558	NA
mr_images/1_a.png	mr_images/1_b_z_135.png	right	cw	135	NA	NA	NA	NA	0	3	3	8	167.45456069987267	NA	NA	NA	NA	NA	168.0065151997842	None	0	NA	NA	atn	001	2026-03-10_18h07.12.327	MR	2023.1.0	60.00171604817558	NA
mr_images/12_b.png	mr_images/12_a_z_270.png	right	ccw	90	NA	NA	NA	NA	0	4	4	66	172.94116709986702	NA	NA	NA	NA	NA	173.50898229982704	left	0	0.17598640033975244	NA	atn	001	2026-03-10_18h07.12.327	MR	2023.1.0	60.00171604817558	NA
mr_images/12_b.png	mr_images/12_b_z_90.png	left	cw	90	NA	NA	NA	NA	0	5	5	65	173.70792690012604	NA	NA	NA	NA	174.2574379001744	174.2574379001744	None	0	NA	NA	atn	001	2026-03-10_18h07.12.327	MR	2023.1.0	60.00171604817558	NA
mr_images/11_a.png	mr_images/11_a_z_270.png	left	ccw	90	NA	NA	NA	NA	0	6	6	31	179.22370269987732	NA	NA	NA	NA	NA	179.76916139991954	right	0	4.867118499707431	NA	atn	001	2026-03-10_18h07.12.327	MR	2023.1.0	60.00171604817558	NA
mr_images/4_a.png	mr_images/4_a_z_270.png	left	ccw	90	NA	NA	NA	NA	0	7	7	103	184.66885139979425	NA	NA	NA	NA	185.23533939989284	185.23533939989284	right	0	4.678197899833322	NA	atn	001	2026-03-10_18h07.12.327	MR	2023.1.0	60.00171604817558	NA
mr_images/3_a.png	mr_images/3_a_z_90.png	left	cw	90	NA	NA	NA	NA	0	8	8	77	189.9388040001504	NA	NA	NA	NA	190.48551570018753	190.48551570018753	right	0	3.4803574001416564	NA	atn	001	2026-03-10_18h07.12.327	MR	2023.1.0	60.00171604817558	NA
mr_images/12_a.png	mr_images/12_a_z_270.png	left	ccw	90	NA	NA	NA	NA	0	9	9	55	193.9839508999139	NA	NA	NA	NA	194.52354480000213	194.52354480000213	right	0	3.841920300386846	NA	atn	001	2026-03-10_18h07.12.327	MR	2023.1.0	60.00171604817558	NA
mr_images/7_b.png	mr_images/7_b_z_45.png	left	cw	45	NA	NA	NA	NA	0	10	10	181	198.3876541000791	NA	NA	NA	NA	198.9372413000092	198.9372413000092	None	0	NA	NA	atn	001	2026-03-10_18h07.12.327	MR	2023.1.0	60.00171604817558	NA
mr_images/7_b.png	mr_images/7_b_z_135.png	left	cw	135	NA	NA	NA	NA	0	11	11	189	203.90365470014513	NA	NA	NA	NA	NA	204.4659579000436	right	0	3.785405800212174	NA	atn	001	2026-03-10_18h07.12.327	MR	2023.1.0	60.00171604817558	NA
mr_images/1_a.png	mr_images/1_b_z_45.png	right	cw	45	NA	NA	NA	NA	0	12	12	0	208.2821118999273	NA	NA	NA	NA	208.84879369987175	208.84879369987175	None	0	NA	NA	atn	001	2026-03-10_18h07.12.327	MR	2023.1.0	60.00171604817558	NA
mr_images/4_b.png	mr_images/4_a_z_135.png	right	cw	135	NA	NA	NA	NA	0	13	13	116	213.79795219982043	NA	NA	NA	NA	NA	214.36461579985917	left	0	4.091648600064218	NA	atn	001	2026-03-10_18h07.12.327	MR	2023.1.0	60.00171604817558	NA
mr_images/7_b.png	mr_images/7_b_z_90.png	left	cw	90	NA	NA	NA	NA	0	14	14	185	218.48070470010865	NA	NA	NA	NA	219.01380650000647	219.01380650000647	right	0	4.4434122000820935	NA	atn	001	2026-03-10_18h07.12.327	MR	2023.1.0	60.00171604817558	NA
mr_images/4_b.png	mr_images/4_b_z_315.png	left	ccw	45	NA	NA	NA	NA	0	15	15	111	223.480159800034	NA	NA	NA	NA	224.01325289998204	224.01325289998204	None	0	NA	NA	atn	001	2026-03-10_18h07.12.327	MR	2023.1.0	60.00171604817558	NA
mr_images/6_a.png	mr_images/6_b_z_315.png	right	ccw	45	NA	NA	NA	NA	0	16	16	146	228.9960350999609	NA	NA	NA	NA	NA	229.56239979993552	left	0	2.587462400086224	NA	atn	001	2026-03-10_18h07.12.327	MR	2023.1.0	60.00171604817558	NA
mr_images/1_b.png	mr_images/1_b_z_270.png	left	ccw	90	NA	NA	NA	NA	0	17	17	19	232.17866099998355	NA	NA	NA	NA	232.7296890001744	232.7296890001744	None	0	NA	NA	atn	001	2026-03-10_18h07.12.327	MR	2023.1.0	60.00171604817558	NA
mr_images/3_a.png	mr_images/3_a_z_270.png	left	ccw	90	NA	NA	NA	NA	0	18	18	79	237.6946923001669	NA	NA	NA	NA	NA	238.24561390001327	None	0	NA	NA	atn	001	2026-03-10_18h07.12.327	MR	2023.1.0	60.00171604817558	NA
mr_images/1_a.png	mr_images/1_a_z_45.png	left	cw	45	NA	NA	NA	NA	0	19	19	1	243.19384199986231	NA	NA	NA	NA	NA	243.7605848000385	None	0	NA	NA	atn	001	2026-03-10_18h07.12.327	MR	2023.1.0	60.00171604817558	NA
mr_images/5_b.png	mr_images/5_a_z_135.png	right	cw	135	NA	NA	NA	NA	0	20	20	140	248.6931956000626	NA	NA	NA	NA	NA	249.2455609999597	left	0	4.089271999895573	NA	atn	001	2026-03-10_18h07.12.327	MR	2023.1.0	60.00171604817558	NA
mr_images/12_b.png	mr_images/12_a_z_225.png	right	ccw	135	NA	NA	NA	NA	0	21	21	70	253.36341230012476	NA	NA	NA	NA	253.89383149985224	253.89383149985224	None	0	NA	NA	atn	001	2026-03-10_18h07.12.327	MR	2023.1.0	60.00171604817558	NA
mr_images/4_b.png	mr_images/4_b_z_270.png	left	ccw	90	NA	NA	NA	NA	0	22	22	115	258.8750853999518	NA	NA	NA	NA	NA	259.4288837998174	None	0	NA	NA	atn	001	2026-03-10_18h07.12.327	MR	2023.1.0	60.00171604817558	NA
mr_images/4_b.png	mr_images/4_a_z_90.png	right	cw	90	NA	NA	NA	NA	0	23	23	112	264.3784936000593	NA	NA	NA	NA	NA	264.94102510018274	None	0	NA	NA	atn	001	2026-03-10_18h07.12.327	MR	2023.1.0	60.00171604817558	NA
mr_images/11_b.png	mr_images/11_a_z_45.png	right	cw	45	NA	NA	NA	NA	0	24	24	36	269.8735941997729	NA	NA	NA	NA	NA	270.45762979984283	None	0	NA	NA	atn	001	2026-03-10_18h07.12.327	MR	2023.1.0	60.00171604817558	NA
mr_images/6_a.png	mr_images/6_b_z_135.png	right	cw	135	NA	NA	NA	NA	0	25	25	152	275.372848900035	NA	NA	NA	NA	NA	275.92299509979784	right	1	0.2764824000187218	NA	atn	001	2026-03-10_18h07.12.327	MR	2023.1.0	60.00171604817558	NA
mr_images/11_b.png	mr_images/11_b_z_90.png	left	cw	90	NA	NA	NA	NA	0	26	26	41	276.22260720003396	NA	NA	NA	NA	276.78934379993007	276.78934379993007	right	0	4.242835800163448	NA	atn	001	2026-03-10_18h07.12.327	MR	2023.1.0	60.00171604817558	NA
mr_images/7_b.png	mr_images/7_a_z_270.png	right	ccw	90	NA	NA	NA	NA	0	27	27	186	281.0553449001163	NA	NA	NA	NA	281.61085079982877	281.61085079982877	left	0	2.6905378997325897	NA	atn	001	2026-03-10_18h07.12.327	MR	2023.1.0	60.00171604817558	NA
mr_images/9_a.png	mr_images/9_a_z_135.png	left	cw	135	NA	NA	NA	NA	0	28	28	201	284.3257532999851	NA	NA	NA	NA	284.88812319980934	284.88812319980934	None	0	NA	NA	atn	001	2026-03-10_18h07.12.327	MR	2023.1.0	60.00171604817558	NA
mr_images/5_b.png	mr_images/5_a_z_315.png	right	ccw	45	NA	NA	NA	NA	0	29	29	134	289.83736790018156	NA	NA	NA	NA	NA	290.3873084001243	left	0	3.039071900304407	NA	atn	001	2026-03-10_18h07.12.327	MR	2023.1.0	60.00171604817558	NA
mr_images/4_a.png	mr_images/4_a_z_315.png	left	ccw	45	NA	NA	NA	NA	0	30	30	99	293.4568766998127	NA	NA	NA	NA	NA	294.00918389996514	right	0	2.472394499927759	NA	atn	001	2026-03-10_18h07.12.327	MR	2023.1.0	60.00171604817558	NA
mr_images/3_b.png	mr_images/3_b_z_135.png	left	cw	135	NA	NA	NA	NA	0	31	31	93	296.5074996999465	NA	NA	NA	NA	297.06956849992275	297.06956849992275	None	0	NA	NA	atn	001	2026-03-10_18h07.12.327	MR	2023.1.0	60.00171604817558	NA
mr_images/6_b.png	mr_images/6_a_z_90.png	right	cw	90	NA	NA	NA	NA	0	32	32	160	302.01916480017826	NA	NA	NA	NA	NA	302.58564359974116	left	0	4.12292220024392	NA	atn	001	2026-03-10_18h07.12.327	MR	2023.1.0	60.00171604817558	NA
mr_images/7_a.png	mr_images/7_a_z_135.png	left	cw	135	NA	NA	NA	NA	0	33	33	177	306.73523980006576	NA	NA	NA	NA	307.3182462998666	307.3182462998666	right	0	3.658411900047213	NA	atn	001	2026-03-10_18h07.12.327	MR	2023.1.0	60.00171604817558	NA
mr_images/6_b.png	mr_images/6_b_z_315.png	left	ccw	45	NA	NA	NA	NA	0	34	34	159	311.0011905999854	NA	NA	NA	NA	311.5344039001502	311.5344039001502	right	0	4.144029199611396	NA	atn	001	2026-03-10_18h07.12.327	MR	2023.1.0	60.00171604817558	NA
mr_images/4_a.png	mr_images/4_a_z_45.png	left	cw	45	NA	NA	NA	NA	0	35	35	97	315.7004460999742	NA	NA	NA	NA	316.2671050997451	316.2671050997451	right	0	4.201739300042391	NA	atn	001	2026-03-10_18h07.12.327	MR	2023.1.0	60.00171604817558	NA
mr_images/11_b.png	mr_images/11_a_z_135.png	right	cw	135	NA	NA	NA	NA	0	36	36	44	320.49984259996563	NA	NA	NA	NA	321.05201350012794	321.05201350012794	right	1	3.589424599893391	NA	atn	001	2026-03-10_18h07.12.327	MR	2023.1.0	60.00171604817558	NA
mr_images/6_a.png	mr_images/6_a_z_270.png	left	ccw	90	NA	NA	NA	NA	0	37	37	151	324.6703277998604	NA	NA	NA	NA	325.21564849978313	325.21564849978313	right	0	3.9542142995633185	NA	atn	001	2026-03-10_18h07.12.327	MR	2023.1.0	60.00171604817558	NA
mr_images/3_a.png	mr_images/3_b_z_270.png	right	ccw	90	NA	NA	NA	NA	0	38	38	78	329.19864269997925	NA	NA	NA	NA	329.7495490000583	329.7495490000583	None	0	NA	NA	atn	001	2026-03-10_18h07.12.327	MR	2023.1.0	60.00171604817558	NA
mr_images/5_a.png	mr_images/5_a_z_270.png	left	ccw	90	NA	NA	NA	NA	0	39	39	127	334.71455649985	NA	NA	NA	NA	NA	335.2641214001924	None	0	NA	NA	atn	001	2026-03-10_18h07.12.327	MR	2023.1.0	60.00171604817558	NA
mr_images/9_b.png	mr_images/9_a_z_135.png	right	cw	135	NA	NA	NA	NA	0	40	40	212	340.2138416999951	NA	NA	NA	NA	NA	340.76356719993055	right	1	3.904572000261396	NA	atn	001	2026-03-10_18h07.12.327	MR	2023.1.0	60.00171604817558	NA
mr_images/9_b.png	mr_images/9_b_z_270.png	left	ccw	90	NA	NA	NA	NA	0	41	41	211	344.6963519998826	NA	NA	NA	NA	345.246362300124	345.246362300124	None	0	NA	NA	atn	001	2026-03-10_18h07.12.327	MR	2023.1.0	60.00171604817558	NA
mr_images/9_b.png	mr_images/9_b_z_225.png	left	ccw	135	NA	NA	NA	NA	0	42	42	215	350.21232379972935	NA	NA	NA	NA	NA	350.74855409981683	right	0	3.659234599675983	NA	atn	001	2026-03-10_18h07.12.327	MR	2023.1.0	60.00171604817558	NA
mr_images/6_a.png	mr_images/6_b_z_225.png	right	ccw	135	NA	NA	NA	NA	0	43	43	154	354.43266170006245	NA	NA	NA	NA	354.9816458998248	354.9816458998248	left	0	4.804444899782538	NA	atn	001	2026-03-10_18h07.12.327	MR	2023.1.0	60.00171604817558	NA
mr_images/7_b.png	mr_images/7_b_z_315.png	left	ccw	45	NA	NA	NA	NA	0	44	44	183	359.81531199999154	NA	NA	NA	NA	360.34826869983226	360.34826869983226	right	0	3.404304699972272	NA	atn	001	2026-03-10_18h07.12.327	MR	2023.1.0	60.00171604817558	NA
mr_images/1_b.png	mr_images/1_b_z_45.png	left	cw	45	NA	NA	NA	NA	0	45	45	13	363.78136839997023	NA	NA	NA	NA	NA	364.3271066998131	right	0	4.449049000162631	NA	atn	001	2026-03-10_18h07.12.327	MR	2023.1.0	60.00171604817558	NA
mr_images/1_a.png	mr_images/1_a_z_135.png	left	cw	135	NA	NA	NA	NA	0	46	46	9	368.79308059997857	NA	NA	NA	NA	369.3485182998702	369.3485182998702	None	0	NA	NA	atn	001	2026-03-10_18h07.12.327	MR	2023.1.0	60.00171604817558	NA
mr_images/6_b.png	mr_images/6_b_z_90.png	left	cw	90	NA	NA	NA	NA	0	47	47	161	374.3092339998111	NA	NA	NA	NA	NA	374.8612465001642	None	0	NA	NA	atn	001	2026-03-10_18h07.12.327	MR	2023.1.0	60.00171604817558	NA
mr_images/9_a.png	mr_images/9_a_z_270.png	left	ccw	90	NA	NA	NA	NA	0	48	48	199	379.8125188001431	NA	NA	NA	NA	NA	380.3636396997608	right	0	4.768205699976534	NA	atn	001	2026-03-10_18h07.12.327	MR	2023.1.0	60.00171604817558	NA
mr_images/11_a.png	mr_images/11_b_z_225.png	right	ccw	135	NA	NA	NA	NA	0	49	49	34	385.16173279983923	NA	NA	NA	NA	385.72427049977705	385.72427049977705	None	0	NA	NA	atn	001	2026-03-10_18h07.12.327	MR	2023.1.0	60.00171604817558	NA
mr_images/7_a.png	mr_images/7_a_z_90.png	left	cw	90	NA	NA	NA	NA	0	50	50	173	390.67358430009335	NA	NA	NA	NA	NA	391.2234327998012	None	0	NA	NA	atn	001	2026-03-10_18h07.12.327	MR	2023.1.0	60.00171604817558	NA
mr_images/11_a.png	mr_images/11_b_z_135.png	right	cw	135	NA	NA	NA	NA	0	51	51	32	396.1768630999141	NA	NA	NA	NA	NA	396.7264800998382	right	1	3.2330638002604246	NA	atn	001	2026-03-10_18h07.12.327	MR	2023.1.0	60.00171604817558	NA
mr_images/11_a.png	mr_images/11_a_z_315.png	left	ccw	45	NA	NA	NA	NA	0	52	52	27	399.9763313997537	NA	NA	NA	NA	400.5388985001482	400.5388985001482	None	0	NA	NA	atn	001	2026-03-10_18h07.12.327	MR	2023.1.0	60.00171604817558	NA
mr_images/4_b.png	mr_images/4_a_z_225.png	right	ccw	135	NA	NA	NA	NA	0	53	53	118	405.488089799881	NA	NA	NA	NA	NA	406.0384595999494	left	0	4.185088200028986	NA	atn	001	2026-03-10_18h07.12.327	MR	2023.1.0	60.00171604817558	NA
mr_images/11_b.png	mr_images/11_a_z_225.png	right	ccw	135	NA	NA	NA	NA	0	54	54	46	410.25420359987766	NA	NA	NA	NA	410.8038913998753	410.8038913998753	left	0	3.3791089998558164	NA	atn	001	2026-03-10_18h07.12.327	MR	2023.1.0	60.00171604817558	NA
mr_images/1_a.png	mr_images/1_a_z_90.png	left	cw	90	NA	NA	NA	NA	0	55	55	5	414.20351599995047	NA	NA	NA	NA	414.75341850006953	414.75341850006953	right	0	4.6469113999046385	NA	atn	001	2026-03-10_18h07.12.327	MR	2023.1.0	60.00171604817558	NA
mr_images/9_b.png	mr_images/9_a_z_90.png	right	cw	90	NA	NA	NA	NA	0	56	56	208	419.4193838001229	NA	NA	NA	NA	419.9694274999202	419.9694274999202	None	0	NA	NA	atn	001	2026-03-10_18h07.12.327	MR	2023.1.0	60.00171604817558	NA
mr_images/3_b.png	mr_images/3_a_z_315.png	right	ccw	45	NA	NA	NA	NA	0	57	57	86	424.93536570016295	NA	NA	NA	NA	NA	425.4691364997998	left	0	3.560871500056237	NA	atn	001	2026-03-10_18h07.12.327	MR	2023.1.0	60.00171604817558	NA
mr_images/3_a.png	mr_images/3_a_z_45.png	left	cw	45	NA	NA	NA	NA	0	58	58	73	429.051358600147	NA	NA	NA	NA	429.6180827999487	429.6180827999487	right	0	4.599313099868596	NA	atn	001	2026-03-10_18h07.12.327	MR	2023.1.0	60.00171604817558	NA
mr_images/1_b.png	mr_images/1_a_z_90.png	right	cw	90	NA	NA	NA	NA	0	59	59	16	434.2340903999284	NA	NA	NA	NA	434.7672386001795	434.7672386001795	left	0	3.760832200292498	NA	atn	001	2026-03-10_18h07.12.327	MR	2023.1.0	60.00171604817558	NA
mr_images/1_b.png	mr_images/1_b_z_315.png	left	ccw	45	NA	NA	NA	NA	0	60	60	15	438.5501045999117	NA	NA	NA	NA	439.1000927998684	439.1000927998684	right	0	2.3420867999084294	NA	atn	001	2026-03-10_18h07.12.327	MR	2023.1.0	60.00171604817558	NA
mr_images/4_b.png	mr_images/4_b_z_225.png	left	ccw	135	NA	NA	NA	NA	0	61	61	119	441.4663292001933	NA	NA	NA	NA	442.01782609988	442.01782609988	right	0	3.2257422003895044	NA	atn	001	2026-03-10_18h07.12.327	MR	2023.1.0	60.00171604817558	NA
mr_images/3_b.png	mr_images/3_b_z_90.png	left	cw	90	NA	NA	NA	NA	0	62	62	89	445.2657726001926	NA	NA	NA	NA	445.8028544997797	445.8028544997797	right	0	2.7430376997217536	NA	atn	001	2026-03-10_18h07.12.327	MR	2023.1.0	60.00171604817558	NA
mr_images/4_b.png	mr_images/4_b_z_90.png	left	cw	90	NA	NA	NA	NA	0	63	63	113	448.5695874998346	NA	NA	NA	NA	449.1317099998705	449.1317099998705	None	0	NA	NA	atn	001	2026-03-10_18h07.12.327	MR	2023.1.0	60.00171604817558	NA
mr_images/7_a.png	mr_images/7_b_z_135.png	right	cw	135	NA	NA	NA	NA	0	64	64	176	454.08131500007585	NA	NA	NA	NA	NA	454.6145568997599	None	0	NA	NA	atn	001	2026-03-10_18h07.12.327	MR	2023.1.0	60.00171604817558	NA
mr_images/4_a.png	mr_images/4_b_z_225.png	right	ccw	135	NA	NA	NA	NA	0	65	65	106	459.5805878997781	NA	NA	NA	NA	NA	460.1137708998285	left	0	3.835613400209695	NA	atn	001	2026-03-10_18h07.12.327	MR	2023.1.0	60.00171604817558	NA
mr_images/6_a.png	mr_images/6_a_z_135.png	left	cw	135	NA	NA	NA	NA	0	66	66	153	463.9799172999338	NA	NA	NA	NA	464.5300607001409	464.5300607001409	left	1	3.740046499762684	NA	atn	001	2026-03-10_18h07.12.327	MR	2023.1.0	60.00171604817558	NA
mr_images/1_b.png	mr_images/1_b_z_225.png	left	ccw	135	NA	NA	NA	NA	0	67	67	23	468.2960036001168	NA	NA	NA	NA	468.84584369976074	468.84584369976074	right	0	4.532182400114834	NA	atn	001	2026-03-10_18h07.12.327	MR	2023.1.0	60.00171604817558	NA
mr_images/6_a.png	mr_images/6_a_z_90.png	left	cw	90	NA	NA	NA	NA	0	68	68	149	473.3955406998284	NA	NA	NA	NA	473.92827829997987	473.92827829997987	right	0	4.609291200060397	NA	atn	001	2026-03-10_18h07.12.327	MR	2023.1.0	60.00171604817558	NA
mr_images/11_a.png	mr_images/11_a_z_225.png	left	ccw	135	NA	NA	NA	NA	0	69	69	35	478.5613926998339	NA	NA	NA	NA	479.0794663000852	479.0794663000852	left	1	3.4634416000917554	NA	atn	001	2026-03-10_18h07.12.327	MR	2023.1.0	60.00171604817558	NA
mr_images/9_a.png	mr_images/9_a_z_315.png	left	ccw	45	NA	NA	NA	NA	0	70	70	195	482.5649357000366	NA	NA	NA	NA	483.1274640997872	483.1274640997872	right	0	3.90032869996503	NA	atn	001	2026-03-10_18h07.12.327	MR	2023.1.0	60.00171604817558	NA
mr_images/11_a.png	mr_images/11_b_z_315.png	right	ccw	45	NA	NA	NA	NA	0	71	71	26	487.0601042001508	NA	NA	NA	NA	487.6269215997309	487.6269215997309	left	0	1.680584699846804	NA	atn	001	2026-03-10_18h07.12.327	MR	2023.1.0	60.00171604817558	NA
mr_images/4_a.png	mr_images/4_b_z_135.png	right	cw	135	NA	NA	NA	NA	0	72	72	104	489.3263322999701	NA	NA	NA	NA	489.8827117001638	489.8827117001638	left	0	3.320291900075972	NA	atn	001	2026-03-10_18h07.12.327	MR	2023.1.0	60.00171604817558	NA
mr_images/5_a.png	mr_images/5_b_z_45.png	right	cw	45	NA	NA	NA	NA	0	73	73	120	493.2300885999575	NA	NA	NA	NA	493.7934853998013	493.7934853998013	None	0	NA	NA	atn	001	2026-03-10_18h07.12.327	MR	2023.1.0	60.00171604817558	NA
mr_images/11_b.png	mr_images/11_b_z_270.png	left	ccw	90	NA	NA	NA	NA	0	74	74	43	498.7417973000556	NA	NA	NA	NA	NA	499.30852840002626	right	0	3.1142410999163985	NA	atn	001	2026-03-10_18h07.12.327	MR	2023.1.0	60.00171604817558	NA
mr_images/7_a.png	mr_images/7_b_z_270.png	right	ccw	90	NA	NA	NA	NA	0	75	75	174	502.44133879989386	NA	NA	NA	NA	502.99111810000613	502.99111810000613	left	0	2.4334587999619544	NA	atn	001	2026-03-10_18h07.12.327	MR	2023.1.0	60.00171604817558	NA
mr_images/1_a.png	mr_images/1_b_z_270.png	right	ccw	90	NA	NA	NA	NA	0	76	76	6	505.4573567998595	NA	NA	NA	NA	505.9907863000408	505.9907863000408	left	0	2.9463539998978376	NA	atn	001	2026-03-10_18h07.12.327	MR	2023.1.0	60.00171604817558	NA
mr_images/11_b.png	mr_images/11_b_z_315.png	left	ccw	45	NA	NA	NA	NA	0	77	77	39	508.95693919993937	NA	NA	NA	NA	509.47344890004024	509.47344890004024	right	0	1.6310175000689924	NA	atn	001	2026-03-10_18h07.12.327	MR	2023.1.0	60.00171604817558	NA
mr_images/9_b.png	mr_images/9_a_z_225.png	right	ccw	135	NA	NA	NA	NA	0	78	78	214	511.1235229000449	NA	NA	NA	NA	511.6623229999095	511.6623229999095	left	0	2.0191509001888335	NA	atn	001	2026-03-10_18h07.12.327	MR	2023.1.0	60.00171604817558	NA
mr_images/1_b.png	mr_images/1_a_z_45.png	right	cw	45	NA	NA	NA	NA	0	79	79	12	513.7104633999988	NA	NA	NA	NA	514.2411587000825	514.2411587000825	None	0	NA	NA	atn	001	2026-03-10_18h07.12.327	MR	2023.1.0	60.00171604817558	NA
mr_images/6_b.png	mr_images/6_a_z_135.png	right	cw	135	NA	NA	NA	NA	0	80	80	164	519.2222140999511	NA	NA	NA	NA	NA	519.7571459999308	left	0	4.553823799826205	NA	atn	001	2026-03-10_18h07.12.327	MR	2023.1.0	60.00171604817558	NA
mr_images/5_b.png	mr_images/5_a_z_45.png	right	cw	45	NA	NA	NA	NA	0	81	81	132	524.3424053001218	NA	NA	NA	NA	524.8725426997989	524.8725426997989	None	0	NA	NA	atn	001	2026-03-10_18h07.12.327	MR	2023.1.0	60.00171604817558	NA
mr_images/3_a.png	mr_images/3_b_z_90.png	right	cw	90	NA	NA	NA	NA	0	82	82	76	529.8543353998102	NA	NA	NA	NA	NA	530.404101099819	left	0	4.402336900122464	NA	atn	001	2026-03-10_18h07.12.327	MR	2023.1.0	60.00171604817558	NA
mr_images/5_a.png	mr_images/5_a_z_90.png	left	cw	90	NA	NA	NA	NA	0	83	83	125	534.8367861998267	NA	NA	NA	NA	535.3865359998308	535.3865359998308	right	0	4.400413500145078	NA	atn	001	2026-03-10_18h07.12.327	MR	2023.1.0	60.00171604817558	NA
mr_images/12_b.png	mr_images/12_b_z_225.png	left	ccw	135	NA	NA	NA	NA	0	84	84	71	539.8194912001491	NA	NA	NA	NA	540.3861879999749	540.3861879999749	right	0	3.349111799616366	NA	atn	001	2026-03-10_18h07.12.327	MR	2023.1.0	60.00171604817558	NA
mr_images/12_b.png	mr_images/12_a_z_45.png	right	cw	45	NA	NA	NA	NA	0	85	85	60	543.7521134000272	NA	NA	NA	NA	544.302008499857	544.302008499857	left	0	3.0401095002889633	NA	atn	001	2026-03-10_18h07.12.327	MR	2023.1.0	60.00171604817558	NA
mr_images/5_a.png	mr_images/5_a_z_45.png	left	cw	45	NA	NA	NA	NA	0	86	86	121	547.3682817001827	NA	NA	NA	NA	547.9016438997351	547.9016438997351	right	0	2.8688425002619624	NA	atn	001	2026-03-10_18h07.12.327	MR	2023.1.0	60.00171604817558	NA
mr_images/3_a.png	mr_images/3_b_z_225.png	right	ccw	135	NA	NA	NA	NA	0	87	87	82	550.8011595001444	NA	NA	NA	NA	551.3679007999599	551.3679007999599	left	0	3.1808422999456525	NA	atn	001	2026-03-10_18h07.12.327	MR	2023.1.0	60.00171604817558	NA
mr_images/11_b.png	mr_images/11_a_z_270.png	right	ccw	90	NA	NA	NA	NA	0	88	88	42	554.567320600152	NA	NA	NA	NA	555.1041076998226	555.1041076998226	left	0	2.5389104997739196	NA	atn	001	2026-03-10_18h07.12.327	MR	2023.1.0	60.00171604817558	NA
mr_images/5_a.png	mr_images/5_b_z_225.png	right	ccw	135	NA	NA	NA	NA	0	89	89	130	557.6711674998514	NA	NA	NA	NA	558.2029332998209	558.2029332998209	left	0	2.457263299729675	NA	atn	001	2026-03-10_18h07.12.327	MR	2023.1.0	60.00171604817558	NA
mr_images/11_a.png	mr_images/11_b_z_270.png	right	ccw	90	NA	NA	NA	NA	0	90	90	30	560.6874866997823	NA	NA	NA	NA	561.2174654998817	561.2174654998817	left	0	1.8128937999717891	NA	atn	001	2026-03-10_18h07.12.327	MR	2023.1.0	60.00171604817558	NA
mr_images/3_b.png	mr_images/3_b_z_225.png	left	ccw	135	NA	NA	NA	NA	0	91	91	95	563.0494745997712	NA	NA	NA	NA	563.5880708000623	563.5880708000623	right	0	1.9504094002768395	NA	atn	001	2026-03-10_18h07.12.327	MR	2023.1.0	60.00171604817558	NA
mr_images/7_b.png	mr_images/7_a_z_90.png	right	cw	90	NA	NA	NA	NA	0	92	92	184	565.5699237999506	NA	NA	NA	NA	566.0997786000371	566.0997786000371	None	0	NA	NA	atn	001	2026-03-10_18h07.12.327	MR	2023.1.0	60.00171604817558	NA
mr_images/1_b.png	mr_images/1_a_z_315.png	right	ccw	45	NA	NA	NA	NA	0	93	93	14	571.0816866997629	NA	NA	NA	NA	NA	571.6317130001262	left	0	1.734322200063616	NA	atn	001	2026-03-10_18h07.12.327	MR	2023.1.0	60.00171604817558	NA
mr_images/9_a.png	mr_images/9_a_z_90.png	left	cw	90	NA	NA	NA	NA	0	94	94	197	573.3980356999673	NA	NA	NA	NA	573.9312414000742	573.9312414000742	right	0	2.6484159999527037	NA	atn	001	2026-03-10_18h07.12.327	MR	2023.1.0	60.00171604817558	NA
mr_images/5_a.png	mr_images/5_b_z_90.png	right	cw	90	NA	NA	NA	NA	0	95	95	124	576.6019180999137	NA	NA	NA	NA	577.1809375998564	577.1809375998564	None	0	NA	NA	atn	001	2026-03-10_18h07.12.327	MR	2023.1.0	60.00171604817558	NA
mr_images/9_a.png	mr_images/9_b_z_270.png	right	ccw	90	NA	NA	NA	NA	0	96	96	198	582.1136921001598	NA	NA	NA	NA	NA	582.646691699978	left	0	3.506443299818784	NA	atn	001	2026-03-10_18h07.12.327	MR	2023.1.0	60.00171604817558	NA
mr_images/7_a.png	mr_images/7_b_z_315.png	right	ccw	45	NA	NA	NA	NA	0	97	97	170	586.1796789998189	NA	NA	NA	NA	586.7018538000993	586.7018538000993	left	0	1.3603838002309203	NA	atn	001	2026-03-10_18h07.12.327	MR	2023.1.0	60.00171604817558	NA
mr_images/3_a.png	mr_images/3_a_z_315.png	left	ccw	45	NA	NA	NA	NA	0	98	98	75	588.0837332000956	NA	NA	NA	NA	588.6292870999314	588.6292870999314	right	0	1.788703000172973	NA	atn	001	2026-03-10_18h07.12.327	MR	2023.1.0	60.00171604817558	NA
mr_images/3_a.png	mr_images/3_b_z_315.png	right	ccw	45	NA	NA	NA	NA	0	99	99	74	590.4457291997969	NA	NA	NA	NA	590.9962192000821	590.9962192000821	left	0	2.627044899854809	NA	atn	001	2026-03-10_18h07.12.327	MR	2023.1.0	60.00171604817558	NA
mr_images/4_b.png	mr_images/4_a_z_315.png	right	ccw	45	NA	NA	NA	NA	0	100	100	110	593.6452112998813	NA	NA	NA	NA	594.1784346001223	594.1784346001223	left	0	2.418001899961382	NA	atn	001	2026-03-10_18h07.12.327	MR	2023.1.0	60.00171604817558	NA
mr_images/6_b.png	mr_images/6_b_z_135.png	left	cw	135	NA	NA	NA	NA	0	101	101	165	596.6281404001638	NA	NA	NA	NA	597.1614031000063	597.1614031000063	right	0	3.3967943000607193	NA	atn	001	2026-03-10_18h07.12.327	MR	2023.1.0	60.00171604817558	NA
mr_images/4_b.png	mr_images/4_b_z_135.png	left	cw	135	NA	NA	NA	NA	0	102	102	117	600.5813531000167	NA	NA	NA	NA	NA	601.1276603997685	right	0	2.4799684998579323	NA	atn	001	2026-03-10_18h07.12.327	MR	2023.1.0	60.00171604817558	NA
mr_images/1_b.png	mr_images/1_b_z_90.png	left	cw	90	NA	NA	NA	NA	0	103	103	17	603.6271748999134	NA	NA	NA	NA	604.1793813998811	604.1793813998811	right	0	4.401000100187957	NA	atn	001	2026-03-10_18h07.12.327	MR	2023.1.0	60.00171604817558	NA
mr_images/11_b.png	mr_images/11_a_z_90.png	right	cw	90	NA	NA	NA	NA	0	104	104	40	608.5973952999339	NA	NA	NA	NA	609.1461963998154	609.1461963998154	left	0	4.202870599925518	NA	atn	001	2026-03-10_18h07.12.327	MR	2023.1.0	60.00171604817558	NA
mr_images/9_a.png	mr_images/9_b_z_315.png	right	ccw	45	NA	NA	NA	NA	0	105	105	194	613.3801064998843	NA	NA	NA	NA	613.9592785001732	613.9592785001732	left	0	1.4489763998426497	NA	atn	001	2026-03-10_18h07.12.327	MR	2023.1.0	60.00171604817558	NA
mr_images/7_a.png	mr_images/7_a_z_225.png	left	ccw	135	NA	NA	NA	NA	0	106	106	179	615.4255896997638	NA	NA	NA	NA	615.9753397000022	615.9753397000022	right	0	2.708170300349593	NA	atn	001	2026-03-10_18h07.12.327	MR	2023.1.0	60.00171604817558	NA
mr_images/4_a.png	mr_images/4_a_z_90.png	left	cw	90	NA	NA	NA	NA	0	107	107	101	618.7084182999097	NA	NA	NA	NA	619.2417997000739	619.2417997000739	right	0	3.0920178000815213	NA	atn	001	2026-03-10_18h07.12.327	MR	2023.1.0	60.00171604817558	NA
mr_images/1_a.png	mr_images/1_b_z_315.png	right	ccw	45	NA	NA	NA	NA	0	108	108	2	622.3578953999095	NA	NA	NA	NA	622.8913590000011	622.8913590000011	left	0	2.2787382998503745	NA	atn	001	2026-03-10_18h07.12.327	MR	2023.1.0	60.00171604817558	NA
mr_images/9_a.png	mr_images/9_a_z_45.png	left	cw	45	NA	NA	NA	NA	0	109	109	193	625.1908145998605	NA	NA	NA	NA	625.7455302998424	625.7455302998424	right	0	3.099881200119853	NA	atn	001	2026-03-10_18h07.12.327	MR	2023.1.0	60.00171604817558	NA
mr_images/12_a.png	mr_images/12_b_z_270.png	right	ccw	90	NA	NA	NA	NA	0	110	110	54	628.8612481001765	NA	NA	NA	NA	629.4236511001363	629.4236511001363	left	0	2.999186699744314	NA	atn	001	2026-03-10_18h07.12.327	MR	2023.1.0	60.00171604817558	NA
mr_images/3_b.png	mr_images/3_b_z_45.png	left	cw	45	NA	NA	NA	NA	0	111	111	85	632.4399051000364	NA	NA	NA	NA	632.9920101999305	632.9920101999305	right	0	2.428804500028491	NA	atn	001	2026-03-10_18h07.12.327	MR	2023.1.0	60.00171604817558	NA
mr_images/6_b.png	mr_images/6_b_z_45.png	left	cw	45	NA	NA	NA	NA	0	112	112	157	635.4437393997796	NA	NA	NA	NA	636.0060229999945	636.0060229999945	right	0	4.184298399835825	NA	atn	001	2026-03-10_18h07.12.327	MR	2023.1.0	60.00171604817558	NA
mr_images/12_b.png	mr_images/12_b_z_135.png	left	cw	135	NA	NA	NA	NA	0	113	113	69	640.2096957000904	NA	NA	NA	NA	640.7720030001365	640.7720030001365	right	0	3.849507300183177	NA	atn	001	2026-03-10_18h07.12.327	MR	2023.1.0	60.00171604817558	NA
mr_images/1_a.png	mr_images/1_a_z_270.png	left	ccw	90	NA	NA	NA	NA	0	114	114	7	644.6381506999023	NA	NA	NA	NA	645.1891116998158	645.1891116998158	right	0	4.490013100206852	NA	atn	001	2026-03-10_18h07.12.327	MR	2023.1.0	60.00171604817558	NA
mr_images/5_a.png	mr_images/5_b_z_135.png	right	cw	135	NA	NA	NA	NA	0	115	115	128	649.7043455997482	NA	NA	NA	NA	650.2416789000854	650.2416789000854	right	1	4.434354600030929	NA	atn	001	2026-03-10_18h07.12.327	MR	2023.1.0	60.00171604817558	NA
mr_images/6_b.png	mr_images/6_a_z_315.png	right	ccw	45	NA	NA	NA	NA	0	116	116	158	654.7076449999586	NA	NA	NA	NA	655.258167100139	655.258167100139	left	0	2.6949430997483432	NA	atn	001	2026-03-10_18h07.12.327	MR	2023.1.0	60.00171604817558	NA
mr_images/12_a.png	mr_images/12_b_z_315.png	right	ccw	45	NA	NA	NA	NA	0	117	117	50	657.9738460001536	NA	NA	NA	NA	658.5203192997724	658.5203192997724	left	0	1.6395103000104427	NA	atn	001	2026-03-10_18h07.12.327	MR	2023.1.0	60.00171604817558	NA
mr_images/5_a.png	mr_images/5_b_z_315.png	right	ccw	45	NA	NA	NA	NA	0	118	118	122	660.1860503000207	NA	NA	NA	NA	660.7526495000347	660.7526495000347	left	0	2.019305699970573	NA	atn	001	2026-03-10_18h07.12.327	MR	2023.1.0	60.00171604817558	NA
mr_images/5_a.png	mr_images/5_a_z_135.png	left	cw	135	NA	NA	NA	NA	0	119	119	129	662.8023052997887	NA	NA	NA	NA	663.3355988999829	663.3355988999829	None	0	NA	NA	atn	001	2026-03-10_18h07.12.327	MR	2023.1.0	60.00171604817558	NA
mr_images/3_b.png	mr_images/3_b_z_315.png	left	ccw	45	NA	NA	NA	NA	0	120	120	87	668.3181227999739	NA	NA	NA	NA	NA	668.857088400051	left	1	2.7051045997068286	NA	atn	001	2026-03-10_18h07.12.327	MR	2023.1.0	60.00171604817558	NA
mr_images/3_b.png	mr_images/3_a_z_225.png	right	ccw	135	NA	NA	NA	NA	0	121	121	94	671.5886690001935	NA	NA	NA	NA	672.1343378000893	672.1343378000893	left	0	4.564606399741024	NA	atn	001	2026-03-10_18h07.12.327	MR	2023.1.0	60.00171604817558	NA
mr_images/1_a.png	mr_images/1_b_z_225.png	right	ccw	135	NA	NA	NA	NA	0	122	122	10	676.7170815998688	NA	NA	NA	NA	677.2533311001025	677.2533311001025	left	0	4.452982199843973	NA	atn	001	2026-03-10_18h07.12.327	MR	2023.1.0	60.00171604817558	NA
mr_images/4_b.png	mr_images/4_b_z_45.png	left	cw	45	NA	NA	NA	NA	0	123	123	109	681.7372586000711	NA	NA	NA	NA	682.2996434001252	682.2996434001252	None	0	NA	NA	atn	001	2026-03-10_18h07.12.327	MR	2023.1.0	60.00171604817558	NA
mr_images/12_a.png	mr_images/12_b_z_135.png	right	cw	135	NA	NA	NA	NA	0	124	124	56	687.2489940999076	NA	NA	NA	NA	NA	687.782098100055	left	0	3.748282600194216	NA	atn	001	2026-03-10_18h07.12.327	MR	2023.1.0	60.00171604817558	NA
mr_images/6_b.png	mr_images/6_a_z_270.png	right	ccw	90	NA	NA	NA	NA	0	125	125	162	691.5482720001601	NA	NA	NA	NA	692.0814499999397	692.0814499999397	left	0	4.303017599973828	NA	atn	001	2026-03-10_18h07.12.327	MR	2023.1.0	60.00171604817558	NA
mr_images/6_a.png	mr_images/6_b_z_90.png	right	cw	90	NA	NA	NA	NA	0	126	126	148	696.4143365998752	NA	NA	NA	NA	696.9509282000363	696.9509282000363	None	0	NA	NA	atn	001	2026-03-10_18h07.12.327	MR	2023.1.0	60.00171604817558	NA
mr_images/7_b.png	mr_images/7_a_z_45.png	right	cw	45	NA	NA	NA	NA	0	127	127	180	701.9178328001872	NA	NA	NA	NA	NA	702.480255600065	left	0	4.195820399560034	NA	atn	001	2026-03-10_18h07.12.327	MR	2023.1.0	60.00171604817558	NA
mr_images/12_b.png	mr_images/12_b_z_45.png	left	cw	45	NA	NA	NA	NA	0	128	128	61	706.7128242999315	NA	NA	NA	NA	NA	707.264610900078	right	0	4.559917599894106	NA	atn	001	2026-03-10_18h07.12.327	MR	2023.1.0	60.00171604817558	NA
mr_images/1_b.png	mr_images/1_a_z_135.png	right	cw	135	NA	NA	NA	NA	0	129	129	20	711.8497687997296	NA	NA	NA	NA	712.3818557998165	712.3818557998165	right	1	3.565072299912572	NA	atn	001	2026-03-10_18h07.12.327	MR	2023.1.0	60.00171604817558	NA
mr_images/6_a.png	mr_images/6_b_z_45.png	right	cw	45	NA	NA	NA	NA	0	130	130	144	715.9658193001524	NA	NA	NA	NA	716.5155079001561	716.5155079001561	None	0	NA	NA	atn	001	2026-03-10_18h07.12.327	MR	2023.1.0	60.00171604817558	NA
mr_images/4_a.png	mr_images/4_b_z_315.png	right	ccw	45	NA	NA	NA	NA	0	131	131	98	721.4817242999561	NA	NA	NA	NA	NA	722.0117096998729	left	0	2.4358338001184165	NA	atn	001	2026-03-10_18h07.12.327	MR	2023.1.0	60.00171604817558	NA
mr_images/6_a.png	mr_images/6_a_z_45.png	left	cw	45	NA	NA	NA	NA	0	132	132	145	724.4770689001307	NA	NA	NA	NA	725.0103557999246	725.0103557999246	None	0	NA	NA	atn	001	2026-03-10_18h07.12.327	MR	2023.1.0	60.00171604817558	NA
mr_images/7_a.png	mr_images/7_b_z_45.png	right	cw	45	NA	NA	NA	NA	0	133	133	168	729.9931292999536	NA	NA	NA	NA	NA	730.5262639001012	None	0	NA	NA	atn	001	2026-03-10_18h07.12.327	MR	2023.1.0	60.00171604817558	NA
mr_images/9_b.png	mr_images/9_b_z_45.png	left	cw	45	NA	NA	NA	NA	0	134	134	205	735.4922275999561	NA	NA	NA	NA	NA	736.0430771000683	None	0	NA	NA	atn	001	2026-03-10_18h07.12.327	MR	2023.1.0	60.00171604817558	NA
mr_images/9_a.png	mr_images/9_b_z_45.png	right	cw	45	NA	NA	NA	NA	0	135	135	192	740.9914651997387	NA	NA	NA	NA	NA	741.5246798000298	left	0	3.1869292999617755	NA	atn	001	2026-03-10_18h07.12.327	MR	2023.1.0	60.00171604817558	NA
mr_images/7_b.png	mr_images/7_a_z_315.png	right	ccw	45	NA	NA	NA	NA	0	136	136	182	744.7409918997437	NA	NA	NA	NA	745.2929674000479	745.2929674000479	left	0	3.3774140998721123	NA	atn	001	2026-03-10_18h07.12.327	MR	2023.1.0	60.00171604817558	NA
mr_images/7_a.png	mr_images/7_a_z_315.png	left	ccw	45	NA	NA	NA	NA	0	137	137	171	748.6946382001042	NA	NA	NA	NA	749.2403501998633	749.2403501998633	right	0	3.31600490026176	NA	atn	001	2026-03-10_18h07.12.327	MR	2023.1.0	60.00171604817558	NA
mr_images/12_a.png	mr_images/12_b_z_90.png	right	cw	90	NA	NA	NA	NA	0	138	138	52	752.589836999774	NA	NA	NA	NA	NA	753.1231292998418	None	0	NA	NA	atn	001	2026-03-10_18h07.12.327	MR	2023.1.0	60.00171604817558	NA
mr_images/9_b.png	mr_images/9_a_z_270.png	right	ccw	90	NA	NA	NA	NA	0	139	139	210	758.0893929000013	NA	NA	NA	NA	NA	758.6223607999273	left	0	1.84849110012874	NA	atn	001	2026-03-10_18h07.12.327	MR	2023.1.0	60.00171604817558	NA
mr_images/12_a.png	mr_images/12_a_z_90.png	left	cw	90	NA	NA	NA	NA	0	140	140	53	760.4887518999167	NA	NA	NA	NA	761.0413878001273	761.0413878001273	right	0	2.5619291001930833	NA	atn	001	2026-03-10_18h07.12.327	MR	2023.1.0	60.00171604817558	NA
mr_images/6_b.png	mr_images/6_b_z_270.png	left	ccw	90	NA	NA	NA	NA	0	141	141	163	763.6259205997922	NA	NA	NA	NA	764.1764572998509	764.1764572998509	right	0	3.24026620015502	NA	atn	001	2026-03-10_18h07.12.327	MR	2023.1.0	60.00171604817558	NA
mr_images/6_a.png	mr_images/6_a_z_315.png	left	ccw	45	NA	NA	NA	NA	0	142	142	147	767.4420345998369	NA	NA	NA	NA	767.970919799991	767.970919799991	right	0	2.1870971000753343	NA	atn	001	2026-03-10_18h07.12.327	MR	2023.1.0	60.00171604817558	NA
mr_images/12_a.png	mr_images/12_a_z_135.png	left	cw	135	NA	NA	NA	NA	0	143	143	57	770.187347299885	NA	NA	NA	NA	770.7540474999696	770.7540474999696	right	0	3.5112332003191113	NA	atn	001	2026-03-10_18h07.12.327	MR	2023.1.0	60.00171604817558	NA
mr_images/5_b.png	mr_images/5_b_z_270.png	left	ccw	90	NA	NA	NA	NA	0	144	144	139	774.2868749997579	NA	NA	NA	NA	774.8534837001935	774.8534837001935	right	0	3.7479190002195537	NA	atn	001	2026-03-10_18h07.12.327	MR	2023.1.0	60.00171604817558	NA
mr_images/11_b.png	mr_images/11_b_z_45.png	left	cw	45	NA	NA	NA	NA	0	145	145	37	778.6196238999255	NA	NA	NA	NA	779.1692595998757	779.1692595998757	None	0	NA	NA	atn	001	2026-03-10_18h07.12.327	MR	2023.1.0	60.00171604817558	NA
mr_images/7_b.png	mr_images/7_b_z_270.png	left	ccw	90	NA	NA	NA	NA	0	146	146	187	784.1356179998256	NA	NA	NA	NA	NA	784.6687185000628	right	0	4.877706400118768	NA	atn	001	2026-03-10_18h07.12.327	MR	2023.1.0	60.00171604817558	NA
mr_images/12_a.png	mr_images/12_b_z_45.png	right	cw	45	NA	NA	NA	NA	0	147	147	48	789.568076599855	NA	NA	NA	NA	790.1046238001436	790.1046238001436	None	0	NA	NA	atn	001	2026-03-10_18h07.12.327	MR	2023.1.0	60.00171604817558	NA
mr_images/5_b.png	mr_images/5_a_z_270.png	right	ccw	90	NA	NA	NA	NA	0	148	148	138	795.0715485000983	NA	NA	NA	NA	NA	795.6005751998164	left	0	2.371639500372112	NA	atn	001	2026-03-10_18h07.12.327	MR	2023.1.0	60.00171604817558	NA
mr_images/5_b.png	mr_images/5_b_z_45.png	left	cw	45	NA	NA	NA	NA	0	149	149	133	798.0002218000591	NA	NA	NA	NA	798.5334119000472	798.5334119000472	None	0	NA	NA	atn	001	2026-03-10_18h07.12.327	MR	2023.1.0	60.00171604817558	NA
mr_images/9_a.png	mr_images/9_b_z_225.png	right	ccw	135	NA	NA	NA	NA	0	150	150	202	803.51608139975	NA	NA	NA	NA	NA	804.049353600014	left	0	3.745466399937868	NA	atn	001	2026-03-10_18h07.12.327	MR	2023.1.0	60.00171604817558	NA
mr_images/3_a.png	mr_images/3_a_z_135.png	left	cw	135	NA	NA	NA	NA	0	151	151	81	807.8193235001527	NA	NA	NA	NA	NA	808.3987571001053	None	0	NA	NA	atn	001	2026-03-10_18h07.12.327	MR	2023.1.0	60.00171604817558	NA
mr_images/4_b.png	mr_images/4_a_z_45.png	right	cw	45	NA	NA	NA	NA	0	152	152	108	813.3315036999993	NA	NA	NA	NA	NA	813.8646772000939	None	0	NA	NA	atn	001	2026-03-10_18h07.12.327	MR	2023.1.0	60.00171604817558	NA
mr_images/11_a.png	mr_images/11_b_z_45.png	right	cw	45	NA	NA	NA	NA	0	153	153	24	818.8348972001113	NA	NA	NA	NA	NA	819.3637712998316	None	0	NA	NA	atn	001	2026-03-10_18h07.12.327	MR	2023.1.0	60.00171604817558	NA
mr_images/11_a.png	mr_images/11_a_z_135.png	left	cw	135	NA	NA	NA	NA	0	154	154	33	824.329825699795	NA	NA	NA	NA	NA	824.8632577001117	right	0	3.8837732998654246	NA	atn	001	2026-03-10_18h07.12.327	MR	2023.1.0	60.00171604817558	NA
mr_images/7_a.png	mr_images/7_b_z_90.png	right	cw	90	NA	NA	NA	NA	0	155	155	172	828.7792289000936	NA	NA	NA	NA	829.2957423999906	829.2957423999906	left	0	4.078348200302571	NA	atn	001	2026-03-10_18h07.12.327	MR	2023.1.0	60.00171604817558	NA
mr_images/9_b.png	mr_images/9_b_z_315.png	left	ccw	45	NA	NA	NA	NA	0	156	156	207	833.3952723997645	NA	NA	NA	NA	833.9452129998244	833.9452129998244	right	0	2.699928500223905	NA	atn	001	2026-03-10_18h07.12.327	MR	2023.1.0	60.00171604817558	NA
mr_images/11_b.png	mr_images/11_b_z_135.png	left	cw	135	NA	NA	NA	NA	0	157	157	45	836.6615872997791	NA	NA	NA	NA	837.1947328997776	837.1947328997776	left	1	3.831741400063038	NA	atn	001	2026-03-10_18h07.12.327	MR	2023.1.0	60.00171604817558	NA
mr_images/7_a.png	mr_images/7_a_z_45.png	left	cw	45	NA	NA	NA	NA	0	158	158	169	841.0442176000215	NA	NA	NA	NA	841.5774646000937	841.5774646000937	right	0	4.454059499781579	NA	atn	001	2026-03-10_18h07.12.327	MR	2023.1.0	60.00171604817558	NA
mr_images/11_b.png	mr_images/11_a_z_315.png	right	ccw	45	NA	NA	NA	NA	0	159	159	38	846.0602841000073	NA	NA	NA	NA	846.5934815998189	846.5934815998189	left	0	1.693229699973017	NA	atn	001	2026-03-10_18h07.12.327	MR	2023.1.0	60.00171604817558	NA
mr_images/1_a.png	mr_images/1_a_z_225.png	left	ccw	135	NA	NA	NA	NA	0	160	160	11	848.3100191997364	NA	NA	NA	NA	848.8765564998612	848.8765564998612	right	0	3.8334550000727177	NA	atn	001	2026-03-10_18h07.12.327	MR	2023.1.0	60.00171604817558	NA
mr_images/7_b.png	mr_images/7_a_z_135.png	right	cw	135	NA	NA	NA	NA	0	161	161	188	852.7426708000712	NA	NA	NA	NA	853.2758557000197	853.2758557000197	right	1	3.2769980002194643	NA	atn	001	2026-03-10_18h07.12.327	MR	2023.1.0	60.00171604817558	NA
mr_images/1_b.png	mr_images/1_a_z_270.png	right	ccw	90	NA	NA	NA	NA	0	162	162	18	856.5791222997941	NA	NA	NA	NA	857.1084420001134	857.1084420001134	left	0	3.3998004999011755	NA	atn	001	2026-03-10_18h07.12.327	MR	2023.1.0	60.00171604817558	NA
mr_images/1_b.png	mr_images/1_a_z_225.png	right	ccw	135	NA	NA	NA	NA	0	163	163	22	860.5248905001208	NA	NA	NA	NA	861.0431498000398	861.0431498000398	None	0	NA	NA	atn	001	2026-03-10_18h07.12.327	MR	2023.1.0	60.00171604817558	NA
mr_images/3_a.png	mr_images/3_b_z_135.png	right	cw	135	NA	NA	NA	NA	0	164	164	80	866.0283706998453	NA	NA	NA	NA	NA	866.5450176000595	right	1	4.149114700034261	NA	atn	001	2026-03-10_18h07.12.327	MR	2023.1.0	60.00171604817558	NA
mr_images/11_a.png	mr_images/11_b_z_90.png	right	cw	90	NA	NA	NA	NA	0	165	165	28	870.7110473997891	NA	NA	NA	NA	871.2568458998576	871.2568458998576	None	0	NA	NA	atn	001	2026-03-10_18h07.12.327	MR	2023.1.0	60.00171604817558	NA
mr_images/7_a.png	mr_images/7_b_z_225.png	right	ccw	135	NA	NA	NA	NA	0	166	166	178	876.2226875000633	NA	NA	NA	NA	NA	876.7727302997373	left	0	3.3105580997653306	NA	atn	001	2026-03-10_18h07.12.327	MR	2023.1.0	60.00171604817558	NA
mr_images/1_a.png	mr_images/1_b_z_90.png	right	cw	90	NA	NA	NA	NA	0	167	167	4	880.1054746997543	NA	NA	NA	NA	880.6448441999964	880.6448441999964	right	1	2.983356900047511	NA	atn	001	2026-03-10_18h07.12.327	MR	2023.1.0	60.00171604817558	NA
mr_images/12_b.png	mr_images/12_a_z_90.png	right	cw	90	NA	NA	NA	NA	0	168	168	64	883.6592131000943	NA	NA	NA	NA	884.1882211999036	884.1882211999036	left	0	2.667138600256294	NA	atn	001	2026-03-10_18h07.12.327	MR	2023.1.0	60.00171604817558	NA
mr_images/12_b.png	mr_images/12_a_z_315.png	right	ccw	45	NA	NA	NA	NA	0	169	169	62	886.887878799811	NA	NA	NA	NA	887.4378137998283	887.4378137998283	left	0	1.186053500045091	NA	atn	001	2026-03-10_18h07.12.327	MR	2023.1.0	60.00171604817558	NA
mr_images/9_a.png	mr_images/9_b_z_90.png	right	cw	90	NA	NA	NA	NA	0	170	170	196	888.6542942998931	NA	NA	NA	NA	889.1919199000113	889.1919199000113	right	1	2.775269200094044	NA	atn	001	2026-03-10_18h07.12.327	MR	2023.1.0	60.00171604817558	NA
mr_images/4_a.png	mr_images/4_a_z_225.png	left	ccw	135	NA	NA	NA	NA	0	171	171	107	891.991358499974	NA	NA	NA	NA	892.5203411998227	892.5203411998227	right	0	4.293185600079596	NA	atn	001	2026-03-10_18h07.12.327	MR	2023.1.0	60.00171604817558	NA
mr_images/1_b.png	mr_images/1_b_z_135.png	left	cw	135	NA	NA	NA	NA	0	172	172	21	896.8366131000221	NA	NA	NA	NA	897.3697497998364	897.3697497998364	right	0	3.7791844997555017	NA	atn	001	2026-03-10_18h07.12.327	MR	2023.1.0	60.00171604817558	NA
mr_images/4_b.png	mr_images/4_a_z_270.png	right	ccw	90	NA	NA	NA	NA	0	173	173	114	901.1691323001868	NA	NA	NA	NA	901.7073816000484	901.7073816000484	left	0	2.7743205996230245	NA	atn	001	2026-03-10_18h07.12.327	MR	2023.1.0	60.00171604817558	NA
mr_images/5_b.png	mr_images/5_b_z_135.png	left	cw	135	NA	NA	NA	NA	0	174	174	141	904.5063354000448	NA	NA	NA	NA	905.035245399922	905.035245399922	right	0	2.7409564000554383	NA	atn	001	2026-03-10_18h07.12.327	MR	2023.1.0	60.00171604817558	NA
mr_images/5_b.png	mr_images/5_b_z_315.png	left	ccw	45	NA	NA	NA	NA	0	175	175	135	907.8016717000864	NA	NA	NA	NA	908.351620499976	908.351620499976	right	0	3.3869691998697817	NA	atn	001	2026-03-10_18h07.12.327	MR	2023.1.0	60.00171604817558	NA
mr_images/3_b.png	mr_images/3_a_z_45.png	right	cw	45	NA	NA	NA	NA	0	176	176	84	911.7677421998231	NA	NA	NA	NA	912.3009379999712	912.3009379999712	right	1	3.82038509985432	NA	atn	001	2026-03-10_18h07.12.327	MR	2023.1.0	60.00171604817558	NA
mr_images/9_b.png	mr_images/9_b_z_90.png	left	cw	90	NA	NA	NA	NA	0	177	177	209	916.1504644001834	NA	NA	NA	NA	916.6838124999776	916.6838124999776	right	0	3.792981500271708	NA	atn	001	2026-03-10_18h07.12.327	MR	2023.1.0	60.00171604817558	NA
mr_images/12_b.png	mr_images/12_b_z_270.png	left	ccw	90	NA	NA	NA	NA	0	178	178	67	920.4998606997542	NA	NA	NA	NA	921.0331143001094	921.0331143001094	right	0	3.1860040999017656	NA	atn	001	2026-03-10_18h07.12.327	MR	2023.1.0	60.00171604817558	NA
mr_images/4_a.png	mr_images/4_b_z_45.png	right	cw	45	NA	NA	NA	NA	0	179	179	96	924.2492919997312	NA	NA	NA	NA	924.7992866998538	924.7992866998538	right	1	3.728486000094563	NA	atn	001	2026-03-10_18h07.12.327	MR	2023.1.0	60.00171604817558	NA
mr_images/11_a.png	mr_images/11_a_z_90.png	left	cw	90	NA	NA	NA	NA	0	180	180	29	928.5487408000045	NA	NA	NA	NA	929.0826497999952	929.0826497999952	None	0	NA	NA	atn	001	2026-03-10_18h07.12.327	MR	2023.1.0	60.00171604817558	NA
mr_images/5_a.png	mr_images/5_b_z_270.png	right	ccw	90	NA	NA	NA	NA	0	181	181	126	934.0646465998144	NA	NA	NA	NA	NA	934.6146964998916	left	0	3.112583899870515	NA	atn	001	2026-03-10_18h07.12.327	MR	2023.1.0	60.00171604817558	NA
mr_images/9_a.png	mr_images/9_b_z_135.png	right	cw	135	NA	NA	NA	NA	0	182	182	200	937.747522199992	NA	NA	NA	NA	938.2997550000435	938.2997550000435	right	1	2.893344699870795	NA	atn	001	2026-03-10_18h07.12.327	MR	2023.1.0	60.00171604817558	NA
mr_images/5_b.png	mr_images/5_b_z_90.png	left	cw	90	NA	NA	NA	NA	0	183	183	137	941.2179196998476	NA	NA	NA	NA	NA	941.7635340997948	right	0	3.7525325999595225	NA	atn	001	2026-03-10_18h07.12.327	MR	2023.1.0	60.00171604817558	NA
mr_images/3_b.png	mr_images/3_b_z_270.png	left	ccw	90	NA	NA	NA	NA	0	184	184	91	945.5464757997544	NA	NA	NA	NA	946.0641642999836	946.0641642999836	right	0	2.573158700019121	NA	atn	001	2026-03-10_18h07.12.327	MR	2023.1.0	60.00171604817558	NA
mr_images/5_b.png	mr_images/5_a_z_225.png	right	ccw	135	NA	NA	NA	NA	0	185	185	142	948.6626216997392	NA	NA	NA	NA	949.2124256999232	949.2124256999232	left	0	2.229589399881661	NA	atn	001	2026-03-10_18h07.12.327	MR	2023.1.0	60.00171604817558	NA
mr_images/5_a.png	mr_images/5_a_z_315.png	left	ccw	45	NA	NA	NA	NA	0	186	186	123	951.4621341000312	NA	NA	NA	NA	951.9826265000738	951.9826265000738	right	0	3.066753000020981	NA	atn	001	2026-03-10_18h07.12.327	MR	2023.1.0	60.00171604817558	NA
mr_images/9_b.png	mr_images/9_b_z_135.png	left	cw	135	NA	NA	NA	NA	0	187	187	213	955.0662250001916	NA	NA	NA	NA	955.5947059001774	955.5947059001774	right	0	3.350867399945855	NA	atn	001	2026-03-10_18h07.12.327	MR	2023.1.0	60.00171604817558	NA
mr_images/1_a.png	mr_images/1_a_z_315.png	left	ccw	45	NA	NA	NA	NA	0	188	188	3	958.977931600064	NA	NA	NA	NA	959.5110645000824	959.5110645000824	right	0	3.913119100034237	NA	atn	001	2026-03-10_18h07.12.327	MR	2023.1.0	60.00171604817558	NA
mr_images/7_b.png	mr_images/7_a_z_225.png	right	ccw	135	NA	NA	NA	NA	0	189	189	190	963.4440445997752	NA	NA	NA	NA	963.9770888001658	963.9770888001658	left	0	2.611823099665344	NA	atn	001	2026-03-10_18h07.12.327	MR	2023.1.0	60.00171604817558	NA
mr_images/11_a.png	mr_images/11_a_z_45.png	left	cw	45	NA	NA	NA	NA	0	190	190	25	966.6101314998232	NA	NA	NA	NA	967.1432083998808	967.1432083998808	None	0	NA	NA	atn	001	2026-03-10_18h07.12.327	MR	2023.1.0	60.00171604817558	NA
mr_images/12_a.png	mr_images/12_b_z_225.png	right	ccw	135	NA	NA	NA	NA	0	191	191	58	972.1265384000726	NA	NA	NA	NA	NA	972.658958800137	left	0	3.0998178999871016	NA	atn	001	2026-03-10_18h07.12.327	MR	2023.1.0	60.00171604817558	NA
mr_images/3_b.png	mr_images/3_a_z_90.png	right	cw	90	NA	NA	NA	NA	0	192	192	88	975.7755502001382	NA	NA	NA	NA	976.308817199897	976.308817199897	right	1	4.2459116000682116	NA	atn	001	2026-03-10_18h07.12.327	MR	2023.1.0	60.00171604817558	NA
mr_images/3_a.png	mr_images/3_b_z_45.png	right	cw	45	NA	NA	NA	NA	0	193	193	72	980.5748069998808	NA	NA	NA	NA	981.1140713999048	981.1140713999048	right	1	4.020460200030357	NA	atn	001	2026-03-10_18h07.12.327	MR	2023.1.0	60.00171604817558	NA
mr_images/12_b.png	mr_images/12_b_z_315.png	left	ccw	45	NA	NA	NA	NA	0	194	194	63	985.1574379997328	NA	NA	NA	NA	985.6907295999116	985.6907295999116	right	0	1.3089579003863037	NA	atn	001	2026-03-10_18h07.12.327	MR	2023.1.0	60.00171604817558	NA
mr_images/6_a.png	mr_images/6_b_z_270.png	right	ccw	90	NA	NA	NA	NA	0	195	195	150	987.0240953001194	NA	NA	NA	NA	987.5571261001752	987.5571261001752	left	0	2.839150699786842	NA	atn	001	2026-03-10_18h07.12.327	MR	2023.1.0	60.00171604817558	NA
mr_images/12_a.png	mr_images/12_a_z_315.png	left	ccw	45	NA	NA	NA	NA	0	196	196	51	990.42352569988	NA	NA	NA	NA	990.9567276001908	990.9567276001908	right	0	1.9618281996808944	NA	atn	001	2026-03-10_18h07.12.327	MR	2023.1.0	60.00171604817558	NA
mr_images/9_b.png	mr_images/9_a_z_45.png	right	cw	45	NA	NA	NA	NA	0	197	197	204	992.9430689001456	NA	NA	NA	NA	993.4731982001103	993.4731982001103	None	0	NA	NA	atn	001	2026-03-10_18h07.12.327	MR	2023.1.0	60.00171604817558	NA
mr_images/6_b.png	mr_images/6_b_z_225.png	left	ccw	135	NA	NA	NA	NA	0	198	198	167	998.4556440999733	NA	NA	NA	NA	NA	998.9906724998727	right	0	2.449856299906969	NA	atn	001	2026-03-10_18h07.12.327	MR	2023.1.0	60.00171604817558	NA
mr_images/7_b.png	mr_images/7_b_z_225.png	left	ccw	135	NA	NA	NA	NA	0	199	199	191	1001.4595729997382	NA	NA	NA	NA	1001.9888679999858	1001.9888679999858	None	0	NA	NA	atn	001	2026-03-10_18h07.12.327	MR	2023.1.0	60.00171604817558	NA
mr_images/7_a.png	mr_images/7_a_z_270.png	left	ccw	90	NA	NA	NA	NA	0	200	200	175	1006.9713494000024	NA	NA	NA	NA	NA	1007.5104678999631	right	0	2.591962699778378	NA	atn	001	2026-03-10_18h07.12.327	MR	2023.1.0	60.00171604817558	NA
mr_images/6_b.png	mr_images/6_a_z_225.png	right	ccw	135	NA	NA	NA	NA	0	201	201	166	1010.125043099746	NA	NA	NA	NA	1010.687194299884	1010.687194299884	left	0	2.0177588001824915	NA	atn	001	2026-03-10_18h07.12.327	MR	2023.1.0	60.00171604817558	NA
mr_images/3_a.png	mr_images/3_a_z_225.png	left	ccw	135	NA	NA	NA	NA	0	202	202	83	1012.7369225998408	NA	NA	NA	NA	1013.2728945999406	1013.2728945999406	right	0	2.8917900999076664	NA	atn	001	2026-03-10_18h07.12.327	MR	2023.1.0	60.00171604817558	NA
mr_images/12_b.png	mr_images/12_a_z_135.png	right	cw	135	NA	NA	NA	NA	0	203	203	68	1016.1908440999688	NA	NA	NA	NA	NA	1016.7364392001182	right	1	3.277395700104534	NA	atn	001	2026-03-10_18h07.12.327	MR	2023.1.0	60.00171604817558	NA
mr_images/12_a.png	mr_images/12_a_z_45.png	left	cw	45	NA	NA	NA	NA	0	204	204	49	1020.0362260001712	NA	NA	NA	NA	1020.5692545999772	1020.5692545999772	None	0	NA	NA	atn	001	2026-03-10_18h07.12.327	MR	2023.1.0	60.00171604817558	NA
mr_images/11_b.png	mr_images/11_b_z_225.png	left	ccw	135	NA	NA	NA	NA	0	205	205	47	1025.5520268999971	NA	NA	NA	NA	NA	1026.0851619997993	right	0	2.691896999720484	NA	atn	001	2026-03-10_18h07.12.327	MR	2023.1.0	60.00171604817558	NA
mr_images/6_a.png	mr_images/6_a_z_225.png	left	ccw	135	NA	NA	NA	NA	0	206	206	155	1028.818152899854	NA	NA	NA	NA	NA	1029.3516337000765	left	1	4.043094700202346	NA	atn	001	2026-03-10_18h07.12.327	MR	2023.1.0	60.00171604817558	NA
mr_images/4_a.png	mr_images/4_b_z_270.png	right	ccw	90	NA	NA	NA	NA	0	207	207	102	1033.4174735001288	NA	NA	NA	NA	1033.9507340001874	1033.9507340001874	left	0	2.3437185999937356	NA	atn	001	2026-03-10_18h07.12.327	MR	2023.1.0	60.00171604817558	NA
mr_images/9_a.png	mr_images/9_a_z_225.png	left	ccw	135	NA	NA	NA	NA	0	208	208	203	1036.318112200126	NA	NA	NA	NA	1036.8503972999752	1036.8503972999752	right	0	3.5354369999840856	NA	atn	001	2026-03-10_18h07.12.327	MR	2023.1.0	60.00171604817558	NA
mr_images/3_b.png	mr_images/3_a_z_135.png	right	cw	135	NA	NA	NA	NA	0	209	209	92	1040.4164931001142	NA	NA	NA	NA	1040.9497616998851	1040.9497616998851	None	0	NA	NA	atn	001	2026-03-10_18h07.12.327	MR	2023.1.0	60.00171604817558	NA
mr_images/4_a.png	mr_images/4_b_z_90.png	right	cw	90	NA	NA	NA	NA	0	210	210	100	1045.9327090000734	NA	NA	NA	NA	NA	1046.4656913997603	None	0	NA	NA	atn	001	2026-03-10_18h07.12.327	MR	2023.1.0	60.00171604817558	NA
mr_images/9_b.png	mr_images/9_a_z_315.png	right	ccw	45	NA	NA	NA	NA	0	211	211	206	1051.431752400007	NA	NA	NA	NA	NA	1051.9650757000782	left	0	3.6438154000788927	NA	atn	001	2026-03-10_18h07.12.327	MR	2023.1.0	60.00171604817558	NA
mr_images/5_b.png	mr_images/5_a_z_90.png	right	cw	90	NA	NA	NA	NA	0	212	212	136	1055.6310729999095	NA	NA	NA	NA	1056.1642724000849	1056.1642724000849	None	0	NA	NA	atn	001	2026-03-10_18h07.12.327	MR	2023.1.0	60.00171604817558	NA
mr_images/5_a.png	mr_images/5_a_z_225.png	left	ccw	135	NA	NA	NA	NA	0	213	213	131	1061.1470717000775	NA	NA	NA	NA	NA	1061.686277399771	right	0	2.101877899840474	NA	atn	001	2026-03-10_18h07.12.327	MR	2023.1.0	60.00171604817558	NA
mr_images/6_b.png	mr_images/6_a_z_45.png	right	cw	45	NA	NA	NA	NA	0	214	214	156	1063.817525899969	NA	NA	NA	NA	1064.3465054999106	1064.3465054999106	None	0	NA	NA	atn	001	2026-03-10_18h07.12.327	MR	2023.1.0	60.00171604817558	NA
mr_images/3_b.png	mr_images/3_a_z_270.png	right	ccw	90	NA	NA	NA	NA	0	215	215	90	1069.329183800146	NA	NA	NA	NA	NA	1069.8625330999494	left	0	2.870550900232047	NA	atn	001	2026-03-10_18h07.12.327	MR	2023.1.0	60.00171604817558	NA
NA	NA	NA	NA	NA	NA	NA	NA	NA	NA	NA	NA	NA	NA	NA	NA	NA	NA	NA	NA	NA	NA	NA	1072.7954059997571	NA	NA	NA	NA	NA	NA	NA
