sequence	training_session.thisRepN	training_session.thisTrialN	training_session.thisN	training_session.thisIndex	training_2n.thisRepN	training_2n.thisTrialN	training_2n.thisN	training_2n.thisIndex	training_3n.thisRepN	training_3n.thisTrialN	training_3n.thisN	training_3n.thisIndex	training_4n.thisRepN	training_4n.thisTrialN	training_4n.thisN	training_4n.thisIndex	allrep_2nback.thisRepN	allrep_2nback.thisTrialN	allrep_2nback.thisN	allrep_2nback.thisIndex	trials_2nback.thisRepN	trials_2nback.thisTrialN	trials_2nback.thisN	trials_2nback.thisIndex	allrep_3nback.thisRepN	allrep_3nback.thisTrialN	allrep_3nback.thisN	allrep_3nback.thisIndex	trials_3nback.thisRepN	trials_3nback.thisTrialN	trials_3nback.thisN	trials_3nback.thisIndex	allrep_4nback.thisRepN	allrep_4nback.thisTrialN	allrep_4nback.thisN	allrep_4nback.thisIndex	trials_4nback.thisRepN	trials_4nback.thisTrialN	trials_4nback.thisN	trials_4nback.thisIndex	buffer02_txt.started	test_griddot_resp2.started	test_griddot_resp2.keys	test_griddot_resp2.rt	buffer23_txt.started	test_griddot_resp3.started	test_griddot_resp3.keys	test_griddot_resp3.rt	buffer34_txt.started	test_griddot_resp4.started	test_griddot_resp4.keys	test_griddot_resp4.rt	confirm_resp.started	confirm_resp.keys	confirm_resp.rt	buffer02_txt.stopped	buffer23_txt.stopped	instr_text_2.started	griddot_resp2.started	griddot_resp2.keys	griddot_resp2.rt	griddot_resp3.started	griddot_resp3.keys	griddot_resp3.rt	buffer34_txt.stopped	griddot_resp4.started	griddot_resp4.keys	griddot_resp4.rt	participant	session	date	expName	psychopyVersion	frameRate	...76
[(1, 1), (2, 0), (0, 1), (2, 0), (0, 1), (0, 0), (0, 2), (2, 2)]	0	0	0	0	0	0	0	407	NA	NA	NA	NA	NA	NA	NA	NA	NA	NA	NA	NA	NA	NA	NA	NA	NA	NA	NA	NA	NA	NA	NA	NA	NA	NA	NA	NA	NA	NA	NA	NA	268.8990195998922	272.96624640002847	['left', 'left']	[6.2807732000947, 11.471045500133187]	NA	NA	NA	NA	NA	NA	NA	NA	NA	NA	NA	NA	NA	NA	NA	NA	NA	NA	NA	NA	NA	NA	NA	NA	atn	001	2026-03-10_17h04.53.895	SS	2023.1.0	60.02880185674705	NA
[(1, 1), (0, 1), (2, 0), (0, 2), (2, 0), (2, 2), (0, 0), (2, 2)]	0	0	0	0	0	1	1	269	NA	NA	NA	NA	NA	NA	NA	NA	NA	NA	NA	NA	NA	NA	NA	NA	NA	NA	NA	NA	NA	NA	NA	NA	NA	NA	NA	NA	NA	NA	NA	NA	NA	289.96449969988316	['left', 'left']	[5.052175499964505, 11.606674899812788]	NA	NA	NA	NA	NA	NA	NA	NA	NA	NA	NA	NA	NA	NA	NA	NA	NA	NA	NA	NA	NA	NA	NA	NA	atn	001	2026-03-10_17h04.53.895	SS	2023.1.0	60.02880185674705	NA
[(1, 0), (1, 1), (2, 0), (1, 1), (0, 1), (2, 2), (0, 1), (2, 2)]	0	0	0	0	0	2	2	360	NA	NA	NA	NA	NA	NA	NA	NA	NA	NA	NA	NA	NA	NA	NA	NA	NA	NA	NA	NA	NA	NA	NA	NA	NA	NA	NA	NA	NA	NA	NA	NA	NA	306.96031440002844	['right', 'left']	[0.11440980015322566, 5.234565699938685]	NA	NA	NA	NA	NA	NA	NA	NA	NA	NA	NA	NA	NA	NA	NA	NA	NA	NA	NA	NA	NA	NA	NA	NA	atn	001	2026-03-10_17h04.53.895	SS	2023.1.0	60.02880185674705	NA
[(0, 2), (2, 2), (1, 2), (2, 1), (0, 1), (0, 1), (2, 1), (1, 2), (0, 1)]	0	0	0	0	NA	NA	NA	NA	0	0	0	487	NA	NA	NA	NA	NA	NA	NA	NA	NA	NA	NA	NA	NA	NA	NA	NA	NA	NA	NA	NA	NA	NA	NA	NA	NA	NA	NA	NA	NA	NA	NA	NA	323.90801579970866	327.97410079976544	None	NA	NA	NA	NA	NA	NA	NA	NA	NA	NA	NA	NA	NA	NA	NA	NA	NA	NA	NA	NA	NA	atn	001	2026-03-10_17h04.53.895	SS	2023.1.0	60.02880185674705	NA
[(0, 2), (1, 1), (1, 1), (0, 2), (1, 1), (0, 0), (0, 1), (2, 0), (2, 1)]	0	0	0	0	NA	NA	NA	NA	0	1	1	699	NA	NA	NA	NA	NA	NA	NA	NA	NA	NA	NA	NA	NA	NA	NA	NA	NA	NA	NA	NA	NA	NA	NA	NA	NA	NA	NA	NA	NA	NA	NA	NA	NA	346.95820420002565	['right', 'left']	[7.8668988002464175, 15.479885300155729]	NA	NA	NA	NA	NA	NA	NA	NA	NA	NA	NA	NA	NA	NA	NA	NA	NA	NA	NA	NA	atn	001	2026-03-10_17h04.53.895	SS	2023.1.0	60.02880185674705	NA
[(2, 2), (1, 2), (0, 2), (0, 0), (1, 2), (0, 2), (1, 0), (2, 2), (1, 2)]	0	0	0	0	NA	NA	NA	NA	0	2	2	596	NA	NA	NA	NA	NA	NA	NA	NA	NA	NA	NA	NA	NA	NA	NA	NA	NA	NA	NA	NA	NA	NA	NA	NA	NA	NA	NA	NA	NA	NA	NA	NA	NA	365.9564915997907	['left']	[1.4570352002047002]	NA	NA	NA	NA	NA	NA	NA	NA	NA	NA	NA	NA	NA	NA	NA	NA	NA	NA	NA	NA	atn	001	2026-03-10_17h04.53.895	SS	2023.1.0	60.02880185674705	NA
[(2, 0), (2, 2), (2, 0), (2, 0), (2, 0), (1, 1), (2, 2), (2, 0), (0, 2), (0, 1)]	0	0	0	0	NA	NA	NA	NA	NA	NA	NA	NA	0	0	0	612	NA	NA	NA	NA	NA	NA	NA	NA	NA	NA	NA	NA	NA	NA	NA	NA	NA	NA	NA	NA	NA	NA	NA	NA	NA	NA	NA	NA	NA	NA	NA	NA	384.8996399999596	388.9655113997869	None	NA	NA	NA	NA	NA	NA	NA	NA	NA	NA	NA	NA	NA	NA	NA	NA	NA	atn	001	2026-03-10_17h04.53.895	SS	2023.1.0	60.02880185674705	NA
[(1, 1), (0, 1), (0, 2), (2, 0), (1, 0), (0, 1), (1, 2), (1, 2), (1, 2), (0, 1)]	0	0	0	0	NA	NA	NA	NA	NA	NA	NA	NA	0	1	1	578	NA	NA	NA	NA	NA	NA	NA	NA	NA	NA	NA	NA	NA	NA	NA	NA	NA	NA	NA	NA	NA	NA	NA	NA	NA	NA	NA	NA	NA	NA	NA	NA	NA	409.9499558997341	None	NA	NA	NA	NA	NA	NA	NA	NA	NA	NA	NA	NA	NA	NA	NA	NA	NA	atn	001	2026-03-10_17h04.53.895	SS	2023.1.0	60.02880185674705	NA
[(1, 0), (0, 1), (2, 0), (0, 0), (1, 0), (2, 1), (2, 0), (2, 2), (1, 0), (1, 0)]	0	0	0	0	NA	NA	NA	NA	NA	NA	NA	NA	0	2	2	82	NA	NA	NA	NA	NA	NA	NA	NA	NA	NA	NA	NA	NA	NA	NA	NA	NA	NA	NA	NA	NA	NA	NA	NA	NA	NA	NA	NA	NA	NA	NA	NA	NA	430.9597395998426	['left']	[15.529052200261503]	NA	NA	NA	NA	NA	NA	NA	NA	NA	NA	NA	NA	NA	NA	NA	NA	atn	001	2026-03-10_17h04.53.895	SS	2023.1.0	60.02880185674705	NA
NA	0	0	0	0	NA	NA	NA	NA	NA	NA	NA	NA	NA	NA	NA	NA	NA	NA	NA	NA	NA	NA	NA	NA	NA	NA	NA	NA	NA	NA	NA	NA	NA	NA	NA	NA	NA	NA	NA	NA	NA	NA	NA	NA	NA	NA	NA	NA	NA	NA	NA	NA	450.894992900081	n	10.97842469997704	NA	NA	NA	NA	NA	NA	NA	NA	NA	NA	NA	NA	NA	atn	001	2026-03-10_17h04.53.895	SS	2023.1.0	60.02880185674705	NA
[(0, 2), (2, 1), (2, 2), (0, 0), (2, 2), (0, 2), (2, 2), (0, 1)]	1	0	1	0	0	0	0	115	NA	NA	NA	NA	NA	NA	NA	NA	NA	NA	NA	NA	NA	NA	NA	NA	NA	NA	NA	NA	NA	NA	NA	NA	NA	NA	NA	NA	NA	NA	NA	NA	462.89302319986746	466.9714541998692	['left', 'left', 'left', 'left']	[6.033948400057852, 7.770364500116557, 11.755353999789804, 15.013307000044733]	NA	NA	NA	NA	NA	NA	NA	NA	NA	NA	NA	465.95712839998305	NA	NA	NA	NA	NA	NA	NA	NA	NA	NA	NA	NA	atn	001	2026-03-10_17h04.53.895	SS	2023.1.0	60.02880185674705	NA
[(2, 0), (2, 0), (2, 0), (2, 0), (0, 0), (2, 2), (2, 1), (2, 0)]	1	0	1	0	0	1	1	516	NA	NA	NA	NA	NA	NA	NA	NA	NA	NA	NA	NA	NA	NA	NA	NA	NA	NA	NA	NA	NA	NA	NA	NA	NA	NA	NA	NA	NA	NA	NA	NA	NA	483.9712331998162	['right', 'right', 'left', 'left', 'left', 'left']	[6.240968100260943, 7.945048600435257, 9.495370200369507, 11.826527300290763, 13.156663100235164, 15.235482100397348]	NA	NA	NA	NA	NA	NA	NA	NA	NA	NA	NA	NA	NA	NA	NA	NA	NA	NA	NA	NA	NA	NA	NA	NA	atn	001	2026-03-10_17h04.53.895	SS	2023.1.0	60.02880185674705	NA
[(2, 0), (1, 1), (2, 0), (1, 1), (0, 2), (0, 1), (1, 0), (2, 0)]	1	0	1	0	0	2	2	444	NA	NA	NA	NA	NA	NA	NA	NA	NA	NA	NA	NA	NA	NA	NA	NA	NA	NA	NA	NA	NA	NA	NA	NA	NA	NA	NA	NA	NA	NA	NA	NA	NA	500.9538396000862	['right']	[5.204381600022316]	NA	NA	NA	NA	NA	NA	NA	NA	NA	NA	NA	NA	NA	NA	NA	NA	NA	NA	NA	NA	NA	NA	NA	NA	atn	001	2026-03-10_17h04.53.895	SS	2023.1.0	60.02880185674705	NA
[(0, 2), (1, 2), (0, 2), (0, 2), (2, 0), (2, 1), (2, 1), (1, 1), (2, 1)]	1	0	1	0	NA	NA	NA	NA	0	0	0	159	NA	NA	NA	NA	NA	NA	NA	NA	NA	NA	NA	NA	NA	NA	NA	NA	NA	NA	NA	NA	NA	NA	NA	NA	NA	NA	NA	NA	NA	NA	NA	NA	517.8977417000569	521.9673096998595	['right', 'left', 'left', 'left', 'left']	[8.23302200017497, 9.885504300240427, 11.588630100246519, 13.492565100081265, 14.914810500107706]	NA	NA	NA	NA	NA	NA	NA	NA	520.980431499891	NA	NA	NA	NA	NA	NA	NA	NA	NA	NA	NA	atn	001	2026-03-10_17h04.53.895	SS	2023.1.0	60.02880185674705	NA
[(1, 1), (1, 2), (1, 1), (1, 1), (0, 2), (0, 2), (1, 1), (2, 2), (2, 0)]	1	0	1	0	NA	NA	NA	NA	0	1	1	258	NA	NA	NA	NA	NA	NA	NA	NA	NA	NA	NA	NA	NA	NA	NA	NA	NA	NA	NA	NA	NA	NA	NA	NA	NA	NA	NA	NA	NA	NA	NA	NA	NA	540.9641808001325	['right', 'left', 'left', 'left']	[6.803345200140029, 10.044501500204206, 12.180030100047588, 16.01910990010947]	NA	NA	NA	NA	NA	NA	NA	NA	NA	NA	NA	NA	NA	NA	NA	NA	NA	NA	NA	NA	atn	001	2026-03-10_17h04.53.895	SS	2023.1.0	60.02880185674705	NA
[(0, 0), (2, 0), (0, 2), (0, 0), (0, 0), (0, 0), (0, 2), (2, 1), (0, 0)]	1	0	1	0	NA	NA	NA	NA	0	2	2	676	NA	NA	NA	NA	NA	NA	NA	NA	NA	NA	NA	NA	NA	NA	NA	NA	NA	NA	NA	NA	NA	NA	NA	NA	NA	NA	NA	NA	NA	NA	NA	NA	NA	559.9619280998595	['left', 'right', 'left', 'left', 'left']	[8.468705599661916, 9.84931410010904, 13.754333700053394, 15.752767500001937, 17.706418899819255]	NA	NA	NA	NA	NA	NA	NA	NA	NA	NA	NA	NA	NA	NA	NA	NA	NA	NA	NA	NA	atn	001	2026-03-10_17h04.53.895	SS	2023.1.0	60.02880185674705	NA
[(2, 2), (1, 1), (1, 0), (1, 1), (0, 2), (1, 1), (1, 0), (1, 1), (2, 0), (0, 1)]	1	0	1	0	NA	NA	NA	NA	NA	NA	NA	NA	0	0	0	579	NA	NA	NA	NA	NA	NA	NA	NA	NA	NA	NA	NA	NA	NA	NA	NA	NA	NA	NA	NA	NA	NA	NA	NA	NA	NA	NA	NA	NA	NA	NA	NA	578.9059540000744	582.9720737999305	['left', 'left', 'right', 'left', 'left']	[8.687923099845648, 12.101788599975407, 16.083892399910837, 18.82996860006824, 19.287759199738503]	NA	NA	NA	NA	NA	NA	NA	NA	NA	NA	NA	NA	NA	NA	NA	NA	atn	001	2026-03-10_17h04.53.895	SS	2023.1.0	60.02880185674705	NA
[(2, 1), (2, 2), (2, 1), (2, 1), (0, 1), (2, 2), (0, 2), (2, 1), (0, 2), (0, 0)]	1	0	1	0	NA	NA	NA	NA	NA	NA	NA	NA	0	1	1	271	NA	NA	NA	NA	NA	NA	NA	NA	NA	NA	NA	NA	NA	NA	NA	NA	NA	NA	NA	NA	NA	NA	NA	NA	NA	NA	NA	NA	NA	NA	NA	NA	NA	603.9559438000433	['right', 'left', 'left', 'left']	[8.585574599914253, 15.825565800070763, 17.661569400224835, 19.092266300227493]	NA	NA	NA	NA	NA	NA	NA	NA	NA	NA	NA	NA	NA	NA	NA	NA	atn	001	2026-03-10_17h04.53.895	SS	2023.1.0	60.02880185674705	NA
[(2, 0), (1, 0), (0, 1), (0, 0), (1, 0), (1, 0), (0, 1), (2, 1), (1, 0), (0, 0)]	1	0	1	0	NA	NA	NA	NA	NA	NA	NA	NA	0	2	2	185	NA	NA	NA	NA	NA	NA	NA	NA	NA	NA	NA	NA	NA	NA	NA	NA	NA	NA	NA	NA	NA	NA	NA	NA	NA	NA	NA	NA	NA	NA	NA	NA	NA	624.966117599979	['left', 'right', 'left', 'left', 'left', 'left']	[8.66682430030778, 11.441431900020689, 14.026114800013602, 15.785600000061095, 18.578706299886107, 19.050912200007588]	NA	NA	NA	NA	NA	NA	NA	NA	NA	NA	NA	NA	NA	NA	NA	NA	atn	001	2026-03-10_17h04.53.895	SS	2023.1.0	60.02880185674705	NA
NA	1	0	1	0	NA	NA	NA	NA	NA	NA	NA	NA	NA	NA	NA	NA	NA	NA	NA	NA	NA	NA	NA	NA	NA	NA	NA	NA	NA	NA	NA	NA	NA	NA	NA	NA	NA	NA	NA	NA	NA	NA	NA	NA	NA	NA	NA	NA	NA	NA	NA	NA	644.9012861000374	y	35.35177950002253	NA	NA	NA	NA	NA	NA	NA	NA	NA	NA	NA	NA	NA	atn	001	2026-03-10_17h04.53.895	SS	2023.1.0	60.02880185674705	NA
[(2, 2), (1, 1), (0, 2), (0, 1), (1, 1), (0, 1), (2, 1), (0, 1)]	NA	NA	NA	NA	NA	NA	NA	NA	NA	NA	NA	NA	NA	NA	NA	NA	0	0	0	0	0	0	0	652	NA	NA	NA	NA	NA	NA	NA	NA	NA	NA	NA	NA	NA	NA	NA	NA	729.9850014001131	NA	NA	NA	NA	NA	NA	NA	NA	NA	NA	NA	NA	NA	NA	733.0676923999563	NA	680.2809112998657	734.0851520998403	None	NA	NA	NA	NA	NA	NA	NA	NA	atn	001	2026-03-10_17h04.53.895	SS	2023.1.0	60.02880185674705	NA
[(1, 0), (1, 2), (0, 2), (1, 1), (0, 2), (0, 2), (0, 2), (1, 0)]	NA	NA	NA	NA	NA	NA	NA	NA	NA	NA	NA	NA	NA	NA	NA	NA	0	0	0	0	0	1	1	376	NA	NA	NA	NA	NA	NA	NA	NA	NA	NA	NA	NA	NA	NA	NA	NA	NA	NA	NA	NA	NA	NA	NA	NA	NA	NA	NA	NA	NA	NA	NA	NA	NA	NA	751.0653586001135	['left', 'right', 'right']	[10.009595999959856, 11.410352100152522, 13.554143200162798]	NA	NA	NA	NA	NA	NA	NA	atn	001	2026-03-10_17h04.53.895	SS	2023.1.0	60.02880185674705	NA
[(2, 1), (0, 2), (2, 1), (2, 1), (0, 1), (2, 1), (1, 2), (2, 1)]	NA	NA	NA	NA	NA	NA	NA	NA	NA	NA	NA	NA	NA	NA	NA	NA	0	0	0	0	0	2	2	420	NA	NA	NA	NA	NA	NA	NA	NA	NA	NA	NA	NA	NA	NA	NA	NA	NA	NA	NA	NA	NA	NA	NA	NA	NA	NA	NA	NA	NA	NA	NA	NA	NA	NA	768.0504022999667	['right', 'left']	[5.4365103002637625, 7.32823899993673]	NA	NA	NA	NA	NA	NA	NA	atn	001	2026-03-10_17h04.53.895	SS	2023.1.0	60.02880185674705	NA
[(1, 1), (0, 1), (2, 0), (0, 2), (2, 0), (2, 2), (0, 0), (2, 2)]	NA	NA	NA	NA	NA	NA	NA	NA	NA	NA	NA	NA	NA	NA	NA	NA	0	0	0	0	0	3	3	269	NA	NA	NA	NA	NA	NA	NA	NA	NA	NA	NA	NA	NA	NA	NA	NA	NA	NA	NA	NA	NA	NA	NA	NA	NA	NA	NA	NA	NA	NA	NA	NA	NA	NA	785.0772711997852	['left', 'left', 'right', 'right', 'left', 'left', 'right']	[6.067029499914497, 7.055273599922657, 7.242426199838519, 9.91544680017978, 11.468770700041205, 12.910127500072122, 15.224521500058472]	NA	NA	NA	NA	NA	NA	NA	atn	001	2026-03-10_17h04.53.895	SS	2023.1.0	60.02880185674705	NA
[(2, 2), (1, 1), (1, 0), (0, 2), (1, 0), (1, 1), (0, 0), (1, 1)]	NA	NA	NA	NA	NA	NA	NA	NA	NA	NA	NA	NA	NA	NA	NA	NA	0	0	0	0	0	4	4	632	NA	NA	NA	NA	NA	NA	NA	NA	NA	NA	NA	NA	NA	NA	NA	NA	NA	NA	NA	NA	NA	NA	NA	NA	NA	NA	NA	NA	NA	NA	NA	NA	NA	NA	802.0428538001142	['left', 'left', 'left', 'right', 'left', 'left', 'right']	[5.232893700245768, 6.750076400116086, 8.502384600229561, 8.838217000011355, 12.223879999946803, 13.45805720007047, 15.303847400005907]	NA	NA	NA	NA	NA	NA	NA	atn	001	2026-03-10_17h04.53.895	SS	2023.1.0	60.02880185674705	NA
[(1, 0), (1, 1), (1, 1), (2, 2), (2, 0), (2, 0), (2, 0), (2, 0)]	NA	NA	NA	NA	NA	NA	NA	NA	NA	NA	NA	NA	NA	NA	NA	NA	0	0	0	0	0	5	5	587	NA	NA	NA	NA	NA	NA	NA	NA	NA	NA	NA	NA	NA	NA	NA	NA	NA	NA	NA	NA	NA	NA	NA	NA	NA	NA	NA	NA	NA	NA	NA	NA	NA	NA	819.042140699923	['left', 'left', 'left', 'right', 'right']	[5.914871600456536, 7.307240100111812, 8.950234800111502, 12.604237200226635, 15.291213100310415]	NA	NA	NA	NA	NA	NA	NA	atn	001	2026-03-10_17h04.53.895	SS	2023.1.0	60.02880185674705	NA
NA	NA	NA	NA	NA	NA	NA	NA	NA	NA	NA	NA	NA	NA	NA	NA	NA	0	0	0	0	NA	NA	NA	NA	NA	NA	NA	NA	NA	NA	NA	NA	NA	NA	NA	NA	NA	NA	NA	NA	NA	NA	NA	NA	NA	NA	NA	NA	NA	NA	NA	NA	NA	NA	NA	NA	NA	NA	NA	NA	NA	NA	NA	NA	NA	NA	NA	NA	atn	001	2026-03-10_17h04.53.895	SS	2023.1.0	60.02880185674705	NA
[(1, 1), (2, 1), (1, 2), (0, 2), (1, 2), (0, 2), (0, 0), (2, 1)]	NA	NA	NA	NA	NA	NA	NA	NA	NA	NA	NA	NA	NA	NA	NA	NA	1	0	1	0	0	0	0	563	NA	NA	NA	NA	NA	NA	NA	NA	NA	NA	NA	NA	NA	NA	NA	NA	NA	NA	NA	NA	NA	NA	NA	NA	NA	NA	NA	NA	NA	NA	NA	NA	NA	NA	839.1367212999612	['left', 'left', 'right', 'right', 'left', 'left']	[5.509493399877101, 7.004744099918753, 8.834739099722356, 12.130245099775493, 13.61117639997974, 15.152238700073212]	NA	NA	NA	NA	NA	NA	NA	atn	001	2026-03-10_17h04.53.895	SS	2023.1.0	60.02880185674705	NA
[(2, 0), (0, 2), (2, 0), (1, 2), (2, 0), (1, 2), (0, 1), (2, 2)]	NA	NA	NA	NA	NA	NA	NA	NA	NA	NA	NA	NA	NA	NA	NA	NA	1	0	1	0	0	1	1	215	NA	NA	NA	NA	NA	NA	NA	NA	NA	NA	NA	NA	NA	NA	NA	NA	NA	NA	NA	NA	NA	NA	NA	NA	NA	NA	NA	NA	NA	NA	NA	NA	NA	NA	856.1010034000501	['right', 'left', 'right', 'right', 'left', 'left']	[6.417724400293082, 7.644986500032246, 9.093179699964821, 11.543292500078678, 12.890388499945402, 15.66561200004071]	NA	NA	NA	NA	NA	NA	NA	atn	001	2026-03-10_17h04.53.895	SS	2023.1.0	60.02880185674705	NA
[(2, 1), (2, 2), (2, 1), (2, 1), (0, 1), (0, 1), (2, 1), (0, 1)]	NA	NA	NA	NA	NA	NA	NA	NA	NA	NA	NA	NA	NA	NA	NA	NA	1	0	1	0	0	2	2	660	NA	NA	NA	NA	NA	NA	NA	NA	NA	NA	NA	NA	NA	NA	NA	NA	NA	NA	NA	NA	NA	NA	NA	NA	NA	NA	NA	NA	NA	NA	NA	NA	NA	NA	873.1316197998822	['right', 'left', 'left', 'left', 'right', 'left']	[5.001845000311732, 7.414956400170922, 10.00235370034352, 10.78583150031045, 12.274247400462627, 13.80722020054236]	NA	NA	NA	NA	NA	NA	NA	atn	001	2026-03-10_17h04.53.895	SS	2023.1.0	60.02880185674705	NA
[(1, 1), (2, 1), (0, 2), (2, 1), (1, 1), (2, 1), (1, 1), (0, 0)]	NA	NA	NA	NA	NA	NA	NA	NA	NA	NA	NA	NA	NA	NA	NA	NA	1	0	1	0	0	3	3	134	NA	NA	NA	NA	NA	NA	NA	NA	NA	NA	NA	NA	NA	NA	NA	NA	NA	NA	NA	NA	NA	NA	NA	NA	NA	NA	NA	NA	NA	NA	NA	NA	NA	NA	890.1155793997459	['left', 'right', 'left', 'right', 'left']	[5.213313500396907, 8.036213700193912, 9.537265100050718, 11.664446200244129, 12.898682200349867]	NA	NA	NA	NA	NA	NA	NA	atn	001	2026-03-10_17h04.53.895	SS	2023.1.0	60.02880185674705	NA
[(2, 2), (2, 1), (1, 2), (2, 1), (0, 1), (2, 1), (0, 0), (2, 2)]	NA	NA	NA	NA	NA	NA	NA	NA	NA	NA	NA	NA	NA	NA	NA	NA	1	0	1	0	0	4	4	560	NA	NA	NA	NA	NA	NA	NA	NA	NA	NA	NA	NA	NA	NA	NA	NA	NA	NA	NA	NA	NA	NA	NA	NA	NA	NA	NA	NA	NA	NA	NA	NA	NA	NA	907.1108846999704	['left', 'right', 'left', 'right', 'left', 'left']	[5.005488800350577, 7.010761000216007, 8.796752700116485, 10.912920200265944, 12.77626380044967, 15.190165800508112]	NA	NA	NA	NA	NA	NA	NA	atn	001	2026-03-10_17h04.53.895	SS	2023.1.0	60.02880185674705	NA
[(0, 2), (1, 1), (2, 2), (1, 1), (0, 2), (0, 1), (1, 0), (0, 1)]	NA	NA	NA	NA	NA	NA	NA	NA	NA	NA	NA	NA	NA	NA	NA	NA	1	0	1	0	0	5	5	209	NA	NA	NA	NA	NA	NA	NA	NA	NA	NA	NA	NA	NA	NA	NA	NA	NA	NA	NA	NA	NA	NA	NA	NA	NA	NA	NA	NA	NA	NA	NA	NA	NA	NA	924.124557999894	['left', 'right', 'left', 'left', 'left', 'right']	[4.849433300085366, 6.856549399904907, 9.024335399735719, 10.834458500146866, 12.694585800170898, 14.882880200166255]	NA	NA	NA	NA	NA	NA	NA	atn	001	2026-03-10_17h04.53.895	SS	2023.1.0	60.02880185674705	NA
NA	NA	NA	NA	NA	NA	NA	NA	NA	NA	NA	NA	NA	NA	NA	NA	NA	1	0	1	0	NA	NA	NA	NA	NA	NA	NA	NA	NA	NA	NA	NA	NA	NA	NA	NA	NA	NA	NA	NA	NA	NA	NA	NA	NA	NA	NA	NA	NA	NA	NA	NA	NA	NA	NA	NA	NA	NA	NA	NA	NA	NA	NA	NA	NA	NA	NA	NA	atn	001	2026-03-10_17h04.53.895	SS	2023.1.0	60.02880185674705	NA
[(2, 1), (0, 2), (1, 0), (2, 1), (0, 2), (2, 2), (1, 2), (2, 2), (0, 2)]	NA	NA	NA	NA	NA	NA	NA	NA	NA	NA	NA	NA	NA	NA	NA	NA	NA	NA	NA	NA	NA	NA	NA	NA	0	0	0	0	0	0	0	539	NA	NA	NA	NA	NA	NA	NA	NA	NA	NA	NA	NA	942.5931468997152	NA	NA	NA	NA	NA	NA	NA	NA	NA	NA	NA	945.6882662000136	NA	NA	NA	NA	946.6578490999528	['right', 'left', 'left', 'left', 'left']	[7.231587199959904, 10.265520700253546, 11.203523600008339, 12.846843699924648, 15.551458400208503]	NA	NA	NA	NA	atn	001	2026-03-10_17h04.53.895	SS	2023.1.0	60.02880185674705	NA
[(2, 1), (2, 2), (1, 0), (0, 1), (0, 1), (2, 1), (0, 0), (0, 1), (2, 1)]	NA	NA	NA	NA	NA	NA	NA	NA	NA	NA	NA	NA	NA	NA	NA	NA	NA	NA	NA	NA	NA	NA	NA	NA	0	0	0	0	0	1	1	75	NA	NA	NA	NA	NA	NA	NA	NA	NA	NA	NA	NA	NA	NA	NA	NA	NA	NA	NA	NA	NA	NA	NA	NA	NA	NA	NA	NA	NA	965.6553476997652	['left', 'left', 'left', 'left', 'right']	[6.953838800545782, 10.393664100207388, 11.818633400369436, 13.151672100182623, 15.594292400404811]	NA	NA	NA	NA	atn	001	2026-03-10_17h04.53.895	SS	2023.1.0	60.02880185674705	NA
[(1, 1), (2, 0), (2, 0), (1, 2), (2, 0), (1, 2), (0, 1), (1, 1), (1, 2)]	NA	NA	NA	NA	NA	NA	NA	NA	NA	NA	NA	NA	NA	NA	NA	NA	NA	NA	NA	NA	NA	NA	NA	NA	0	0	0	0	0	2	2	442	NA	NA	NA	NA	NA	NA	NA	NA	NA	NA	NA	NA	NA	NA	NA	NA	NA	NA	NA	NA	NA	NA	NA	NA	NA	NA	NA	NA	NA	984.6661149999128	['left', 'right', 'left', 'left', 'left']	[7.4467493002302945, 9.492018999997526, 13.290354900062084, 14.124341800343245, 15.325558400247246]	NA	NA	NA	NA	atn	001	2026-03-10_17h04.53.895	SS	2023.1.0	60.02880185674705	NA
[(2, 2), (1, 0), (1, 0), (0, 0), (0, 1), (1, 0), (0, 0), (0, 2), (1, 0)]	NA	NA	NA	NA	NA	NA	NA	NA	NA	NA	NA	NA	NA	NA	NA	NA	NA	NA	NA	NA	NA	NA	NA	NA	0	0	0	0	0	3	3	128	NA	NA	NA	NA	NA	NA	NA	NA	NA	NA	NA	NA	NA	NA	NA	NA	NA	NA	NA	NA	NA	NA	NA	NA	NA	NA	NA	NA	NA	1003.6635817997158	['left', 'left', 'right', 'left', 'left', 'left']	[7.234516399912536, 9.754259000066668, 11.495732000097632, 13.286205799784511, 14.831452500075102, 17.1669052997604]	NA	NA	NA	NA	atn	001	2026-03-10_17h04.53.895	SS	2023.1.0	60.02880185674705	NA
[(1, 2), (2, 0), (2, 0), (0, 1), (1, 2), (1, 0), (0, 1), (0, 1), (1, 0)]	NA	NA	NA	NA	NA	NA	NA	NA	NA	NA	NA	NA	NA	NA	NA	NA	NA	NA	NA	NA	NA	NA	NA	NA	0	0	0	0	0	4	4	307	NA	NA	NA	NA	NA	NA	NA	NA	NA	NA	NA	NA	NA	NA	NA	NA	NA	NA	NA	NA	NA	NA	NA	NA	NA	NA	NA	NA	NA	1022.6609510998242	['left', 'right', 'right', 'right', 'left', 'left']	[7.564238800201565, 9.611513700336218, 11.712445800192654, 13.006582899950445, 15.684947500005364, 17.74480380024761]	NA	NA	NA	NA	atn	001	2026-03-10_17h04.53.895	SS	2023.1.0	60.02880185674705	NA
[(2, 0), (2, 1), (2, 1), (0, 1), (0, 1), (0, 2), (1, 2), (0, 1), (0, 2)]	NA	NA	NA	NA	NA	NA	NA	NA	NA	NA	NA	NA	NA	NA	NA	NA	NA	NA	NA	NA	NA	NA	NA	NA	0	0	0	0	0	5	5	484	NA	NA	NA	NA	NA	NA	NA	NA	NA	NA	NA	NA	NA	NA	NA	NA	NA	NA	NA	NA	NA	NA	NA	NA	NA	NA	NA	NA	NA	1041.661806799937	['left', 'left', 'left', 'left', 'right']	[7.050252200104296, 9.204079399816692, 12.086107399780303, 12.750206700060517, 15.01160839991644]	NA	NA	NA	NA	atn	001	2026-03-10_17h04.53.895	SS	2023.1.0	60.02880185674705	NA
NA	NA	NA	NA	NA	NA	NA	NA	NA	NA	NA	NA	NA	NA	NA	NA	NA	NA	NA	NA	NA	NA	NA	NA	NA	0	0	0	0	NA	NA	NA	NA	NA	NA	NA	NA	NA	NA	NA	NA	NA	NA	NA	NA	NA	NA	NA	NA	NA	NA	NA	NA	NA	NA	NA	NA	NA	NA	NA	NA	NA	NA	NA	NA	NA	NA	NA	NA	atn	001	2026-03-10_17h04.53.895	SS	2023.1.0	60.02880185674705	NA
[(0, 1), (0, 2), (2, 2), (0, 1), (2, 1), (1, 1), (0, 1), (1, 1), (0, 1)]	NA	NA	NA	NA	NA	NA	NA	NA	NA	NA	NA	NA	NA	NA	NA	NA	NA	NA	NA	NA	NA	NA	NA	NA	1	0	1	0	0	0	0	276	NA	NA	NA	NA	NA	NA	NA	NA	NA	NA	NA	NA	NA	NA	NA	NA	NA	NA	NA	NA	NA	NA	NA	NA	NA	NA	NA	NA	NA	1064.021853399929	['right', 'left', 'right', 'right', 'left']	[7.775457500014454, 9.878665800206363, 11.634817000012845, 13.401381900068372, 15.722271600272506]	NA	NA	NA	NA	atn	001	2026-03-10_17h04.53.895	SS	2023.1.0	60.02880185674705	NA
[(0, 2), (2, 1), (2, 2), (0, 2), (2, 2), (2, 2), (2, 1), (2, 2), (0, 1)]	NA	NA	NA	NA	NA	NA	NA	NA	NA	NA	NA	NA	NA	NA	NA	NA	NA	NA	NA	NA	NA	NA	NA	NA	1	0	1	0	0	1	1	115	NA	NA	NA	NA	NA	NA	NA	NA	NA	NA	NA	NA	NA	NA	NA	NA	NA	NA	NA	NA	NA	NA	NA	NA	NA	NA	NA	NA	NA	1083.019125299994	['right', 'right', 'left']	[8.771519400179386, 10.056422000285238, 16.06194690009579]	NA	NA	NA	NA	atn	001	2026-03-10_17h04.53.895	SS	2023.1.0	60.02880185674705	NA
[(1, 0), (2, 0), (0, 1), (0, 0), (2, 0), (2, 0), (0, 2), (2, 0), (2, 2)]	NA	NA	NA	NA	NA	NA	NA	NA	NA	NA	NA	NA	NA	NA	NA	NA	NA	NA	NA	NA	NA	NA	NA	NA	1	0	1	0	0	2	2	14	NA	NA	NA	NA	NA	NA	NA	NA	NA	NA	NA	NA	NA	NA	NA	NA	NA	NA	NA	NA	NA	NA	NA	NA	NA	NA	NA	NA	NA	1102.0166167998686	['left', 'right', 'left', 'left', 'left', 'left']	[6.868548800237477, 9.875777900218964, 11.72608090005815, 13.18513200012967, 16.193414800334722, 17.063443399965763]	NA	NA	NA	NA	atn	001	2026-03-10_17h04.53.895	SS	2023.1.0	60.02880185674705	NA
[(2, 1), (1, 0), (0, 1), (2, 2), (0, 1), (0, 1), (2, 2), (1, 0), (1, 2)]	NA	NA	NA	NA	NA	NA	NA	NA	NA	NA	NA	NA	NA	NA	NA	NA	NA	NA	NA	NA	NA	NA	NA	NA	1	0	1	0	0	3	3	339	NA	NA	NA	NA	NA	NA	NA	NA	NA	NA	NA	NA	NA	NA	NA	NA	NA	NA	NA	NA	NA	NA	NA	NA	NA	NA	NA	NA	NA	1121.013854699675	['left', 'left', 'left', 'left']	[10.021259400062263, 12.369248500093818, 13.43644790025428, 15.84900559997186]	NA	NA	NA	NA	atn	001	2026-03-10_17h04.53.895	SS	2023.1.0	60.02880185674705	NA
[(1, 0), (2, 0), (1, 1), (0, 1), (1, 0), (1, 1), (0, 1), (1, 2), (1, 1)]	NA	NA	NA	NA	NA	NA	NA	NA	NA	NA	NA	NA	NA	NA	NA	NA	NA	NA	NA	NA	NA	NA	NA	NA	1	0	1	0	0	4	4	635	NA	NA	NA	NA	NA	NA	NA	NA	NA	NA	NA	NA	NA	NA	NA	NA	NA	NA	NA	NA	NA	NA	NA	NA	NA	NA	NA	NA	NA	1140.0113921999	['left', 'left', 'right', 'left']	[7.622339700348675, 10.57944120047614, 12.945831300225109, 14.121050300076604]	NA	NA	NA	NA	atn	001	2026-03-10_17h04.53.895	SS	2023.1.0	60.02880185674705	NA
[(1, 1), (1, 2), (1, 1), (1, 1), (0, 2), (0, 2), (1, 1), (2, 2), (2, 0)]	NA	NA	NA	NA	NA	NA	NA	NA	NA	NA	NA	NA	NA	NA	NA	NA	NA	NA	NA	NA	NA	NA	NA	NA	1	0	1	0	0	5	5	258	NA	NA	NA	NA	NA	NA	NA	NA	NA	NA	NA	NA	NA	NA	NA	NA	NA	NA	NA	NA	NA	NA	NA	NA	NA	NA	NA	NA	NA	1159.0122858998366	['right', 'left', 'left', 'right', 'left', 'left']	[9.266590400133282, 10.223672000225633, 11.418730299919844, 15.777947899885476, 16.342836800031364, 16.980899500194937]	NA	NA	NA	NA	atn	001	2026-03-10_17h04.53.895	SS	2023.1.0	60.02880185674705	NA
NA	NA	NA	NA	NA	NA	NA	NA	NA	NA	NA	NA	NA	NA	NA	NA	NA	NA	NA	NA	NA	NA	NA	NA	NA	1	0	1	0	NA	NA	NA	NA	NA	NA	NA	NA	NA	NA	NA	NA	NA	NA	NA	NA	NA	NA	NA	NA	NA	NA	NA	NA	NA	NA	NA	NA	NA	NA	NA	NA	NA	NA	NA	NA	NA	NA	NA	NA	atn	001	2026-03-10_17h04.53.895	SS	2023.1.0	60.02880185674705	NA
[(1, 1), (0, 2), (2, 1), (2, 0), (1, 1), (0, 2), (1, 0), (2, 1), (1, 0), (1, 0)]	NA	NA	NA	NA	NA	NA	NA	NA	NA	NA	NA	NA	NA	NA	NA	NA	NA	NA	NA	NA	NA	NA	NA	NA	NA	NA	NA	NA	NA	NA	NA	NA	0	0	0	0	0	0	0	603	NA	NA	NA	NA	NA	NA	NA	NA	1179.2891808999702	NA	NA	NA	NA	NA	NA	NA	NA	NA	NA	NA	NA	NA	NA	NA	1182.3719608997926	1183.357777999714	['right', 'right', 'right', 'right', 'left', 'left']	[9.80982660036534, 11.482409799937159, 13.700419300235808, 15.197489900048822, 17.120638200081885, 19.648999200202525]	atn	001	2026-03-10_17h04.53.895	SS	2023.1.0	60.02880185674705	NA
[(1, 1), (1, 0), (2, 1), (0, 0), (2, 2), (1, 2), (1, 2), (0, 0), (2, 2), (2, 1)]	NA	NA	NA	NA	NA	NA	NA	NA	NA	NA	NA	NA	NA	NA	NA	NA	NA	NA	NA	NA	NA	NA	NA	NA	NA	NA	NA	NA	NA	NA	NA	NA	0	0	0	0	0	1	1	327	NA	NA	NA	NA	NA	NA	NA	NA	NA	NA	NA	NA	NA	NA	NA	NA	NA	NA	NA	NA	NA	NA	NA	NA	NA	1204.3551952997225	['left', 'left', 'right', 'left']	[9.146221700124443, 13.30227469978854, 16.748984599951655, 17.61707399971783]	atn	001	2026-03-10_17h04.53.895	SS	2023.1.0	60.02880185674705	NA
[(1, 2), (2, 1), (0, 0), (0, 1), (0, 0), (2, 1), (1, 2), (0, 2), (2, 1), (2, 1)]	NA	NA	NA	NA	NA	NA	NA	NA	NA	NA	NA	NA	NA	NA	NA	NA	NA	NA	NA	NA	NA	NA	NA	NA	NA	NA	NA	NA	NA	NA	NA	NA	0	0	0	0	0	2	2	573	NA	NA	NA	NA	NA	NA	NA	NA	NA	NA	NA	NA	NA	NA	NA	NA	NA	NA	NA	NA	NA	NA	NA	NA	NA	1225.3660810999572	['left', 'right', 'left', 'left', 'left', 'right']	[9.246885299682617, 11.005925199948251, 13.445092999842018, 15.289285500068218, 18.24840539973229, 19.548587800003588]	atn	001	2026-03-10_17h04.53.895	SS	2023.1.0	60.02880185674705	NA
[(1, 1), (0, 1), (1, 1), (2, 2), (2, 1), (1, 1), (1, 1), (1, 2), (2, 1), (2, 2)]	NA	NA	NA	NA	NA	NA	NA	NA	NA	NA	NA	NA	NA	NA	NA	NA	NA	NA	NA	NA	NA	NA	NA	NA	NA	NA	NA	NA	NA	NA	NA	NA	0	0	0	0	0	3	3	547	NA	NA	NA	NA	NA	NA	NA	NA	NA	NA	NA	NA	NA	NA	NA	NA	NA	NA	NA	NA	NA	NA	NA	NA	NA	1246.3798973998057	['left', 'right', 'left', 'left', 'right', 'left']	[9.784571000374854, 12.161859299987555, 14.193484000395983, 17.705382300075144, 18.898726700339466, 19.828600000124425]	atn	001	2026-03-10_17h04.53.895	SS	2023.1.0	60.02880185674705	NA
[(0, 0), (0, 2), (0, 2), (2, 1), (2, 0), (0, 0), (1, 0), (2, 1), (0, 0), (0, 0)]	NA	NA	NA	NA	NA	NA	NA	NA	NA	NA	NA	NA	NA	NA	NA	NA	NA	NA	NA	NA	NA	NA	NA	NA	NA	NA	NA	NA	NA	NA	NA	NA	0	0	0	0	0	4	4	50	NA	NA	NA	NA	NA	NA	NA	NA	NA	NA	NA	NA	NA	NA	NA	NA	NA	NA	NA	NA	NA	NA	NA	NA	NA	1267.3603532998825	['left', 'left', 'left', 'left', 'left']	[9.552973499987274, 14.635474300011992, 16.331698200199753, 16.68992520030588, 17.788033599965274]	atn	001	2026-03-10_17h04.53.895	SS	2023.1.0	60.02880185674705	NA
[(1, 1), (2, 2), (1, 1), (1, 2), (0, 1), (2, 2), (0, 1), (1, 2), (1, 0), (2, 1)]	NA	NA	NA	NA	NA	NA	NA	NA	NA	NA	NA	NA	NA	NA	NA	NA	NA	NA	NA	NA	NA	NA	NA	NA	NA	NA	NA	NA	NA	NA	NA	NA	0	0	0	0	0	5	5	134	NA	NA	NA	NA	NA	NA	NA	NA	NA	NA	NA	NA	NA	NA	NA	NA	NA	NA	NA	NA	NA	NA	NA	NA	NA	1288.3573841997422	['left', 'right', 'left', 'left']	[12.594592500012368, 14.469337200280279, 18.24427800020203, 19.722371200099587]	atn	001	2026-03-10_17h04.53.895	SS	2023.1.0	60.02880185674705	NA
NA	NA	NA	NA	NA	NA	NA	NA	NA	NA	NA	NA	NA	NA	NA	NA	NA	NA	NA	NA	NA	NA	NA	NA	NA	NA	NA	NA	NA	NA	NA	NA	NA	0	0	0	0	NA	NA	NA	NA	NA	NA	NA	NA	NA	NA	NA	NA	NA	NA	NA	NA	NA	NA	NA	NA	NA	NA	NA	NA	NA	NA	NA	NA	NA	NA	NA	NA	atn	001	2026-03-10_17h04.53.895	SS	2023.1.0	60.02880185674705	NA
[(2, 0), (1, 0), (0, 2), (2, 1), (1, 1), (1, 0), (1, 0), (1, 0), (1, 1), (0, 0)]	NA	NA	NA	NA	NA	NA	NA	NA	NA	NA	NA	NA	NA	NA	NA	NA	NA	NA	NA	NA	NA	NA	NA	NA	NA	NA	NA	NA	NA	NA	NA	NA	1	0	1	0	0	0	0	505	NA	NA	NA	NA	NA	NA	NA	NA	NA	NA	NA	NA	NA	NA	NA	NA	NA	NA	NA	NA	NA	NA	NA	NA	NA	1311.2207503998652	['left', 'left', 'left', 'left', 'right', 'left']	[8.848137100227177, 10.948298099916428, 13.344220099970698, 15.59381730016321, 17.480917599983513, 19.705981300212443]	atn	001	2026-03-10_17h04.53.895	SS	2023.1.0	60.02880185674705	NA
[(2, 0), (1, 1), (0, 1), (0, 0), (1, 1), (1, 2), (2, 2), (0, 0), (1, 1), (2, 0)]	NA	NA	NA	NA	NA	NA	NA	NA	NA	NA	NA	NA	NA	NA	NA	NA	NA	NA	NA	NA	NA	NA	NA	NA	NA	NA	NA	NA	NA	NA	NA	NA	1	0	1	0	0	1	1	128	NA	NA	NA	NA	NA	NA	NA	NA	NA	NA	NA	NA	NA	NA	NA	NA	NA	NA	NA	NA	NA	NA	NA	NA	NA	1332.221781899687	['left', 'left', 'left', 'right', 'left']	[9.814612800255418, 10.942625999916345, 13.020660100039095, 15.363834199961275, 18.08400350017473]	atn	001	2026-03-10_17h04.53.895	SS	2023.1.0	60.02880185674705	NA
[(0, 0), (1, 2), (0, 1), (2, 0), (1, 0), (2, 2), (0, 2), (2, 0), (2, 1), (2, 2)]	NA	NA	NA	NA	NA	NA	NA	NA	NA	NA	NA	NA	NA	NA	NA	NA	NA	NA	NA	NA	NA	NA	NA	NA	NA	NA	NA	NA	NA	NA	NA	NA	1	0	1	0	0	2	2	581	NA	NA	NA	NA	NA	NA	NA	NA	NA	NA	NA	NA	NA	NA	NA	NA	NA	NA	NA	NA	NA	NA	NA	NA	NA	1353.1985503998585	['left', 'left', 'left', 'left', 'left', 'right']	[9.426440199837089, 11.524511199910194, 12.882565499749035, 15.283606499899179, 18.011158999986947, 19.909241799730808]	atn	001	2026-03-10_17h04.53.895	SS	2023.1.0	60.02880185674705	NA
[(1, 0), (0, 2), (0, 0), (0, 1), (1, 0), (0, 2), (1, 1), (0, 2), (0, 2), (0, 2)]	NA	NA	NA	NA	NA	NA	NA	NA	NA	NA	NA	NA	NA	NA	NA	NA	NA	NA	NA	NA	NA	NA	NA	NA	NA	NA	NA	NA	NA	NA	NA	NA	1	0	1	0	0	3	3	112	NA	NA	NA	NA	NA	NA	NA	NA	NA	NA	NA	NA	NA	NA	NA	NA	NA	NA	NA	NA	NA	NA	NA	NA	NA	1374.228797200136	['left', 'left', 'right', 'right', 'left', 'left']	[10.458090899977833, 12.226713700219989, 14.683226299937814, 15.45133570022881, 18.302544000092894, 19.31769460020587]	atn	001	2026-03-10_17h04.53.895	SS	2023.1.0	60.02880185674705	NA
[(1, 1), (1, 0), (2, 1), (1, 2), (1, 1), (2, 1), (1, 2), (1, 2), (0, 0), (1, 1)]	NA	NA	NA	NA	NA	NA	NA	NA	NA	NA	NA	NA	NA	NA	NA	NA	NA	NA	NA	NA	NA	NA	NA	NA	NA	NA	NA	NA	NA	NA	NA	NA	1	0	1	0	0	4	4	552	NA	NA	NA	NA	NA	NA	NA	NA	NA	NA	NA	NA	NA	NA	NA	NA	NA	NA	NA	NA	NA	NA	NA	NA	NA	1395.2259590998292	['left', 'left']	[13.492700499948114, 15.597495200112462]	atn	001	2026-03-10_17h04.53.895	SS	2023.1.0	60.02880185674705	NA
[(0, 2), (0, 0), (0, 0), (2, 0), (0, 2), (1, 2), (2, 0), (0, 2), (0, 1), (1, 2)]	NA	NA	NA	NA	NA	NA	NA	NA	NA	NA	NA	NA	NA	NA	NA	NA	NA	NA	NA	NA	NA	NA	NA	NA	NA	NA	NA	NA	NA	NA	NA	NA	1	0	1	0	0	5	5	664	NA	NA	NA	NA	NA	NA	NA	NA	NA	NA	NA	NA	NA	NA	NA	NA	NA	NA	NA	NA	NA	NA	NA	NA	NA	1416.2100486997515	['right', 'left', 'left', 'left', 'left', 'right']	[9.57802619971335, 12.42493940005079, 12.918048299849033, 16.094973899889737, 18.032941800076514, 19.846054600086063]	atn	001	2026-03-10_17h04.53.895	SS	2023.1.0	60.02880185674705	NA
NA	NA	NA	NA	NA	NA	NA	NA	NA	NA	NA	NA	NA	NA	NA	NA	NA	NA	NA	NA	NA	NA	NA	NA	NA	NA	NA	NA	NA	NA	NA	NA	NA	1	0	1	0	NA	NA	NA	NA	NA	NA	NA	NA	NA	NA	NA	NA	NA	NA	NA	NA	NA	NA	NA	NA	NA	NA	NA	NA	NA	NA	NA	NA	NA	NA	NA	NA	atn	001	2026-03-10_17h04.53.895	SS	2023.1.0	60.02880185674705	NA
