sequence	training_session.thisRepN	training_session.thisTrialN	training_session.thisN	training_session.thisIndex	training_2n.thisRepN	training_2n.thisTrialN	training_2n.thisN	training_2n.thisIndex	training_3n.thisRepN	training_3n.thisTrialN	training_3n.thisN	training_3n.thisIndex	training_4n.thisRepN	training_4n.thisTrialN	training_4n.thisN	training_4n.thisIndex	allrep_2nback.thisRepN	allrep_2nback.thisTrialN	allrep_2nback.thisN	allrep_2nback.thisIndex	trials_2nback.thisRepN	trials_2nback.thisTrialN	trials_2nback.thisN	trials_2nback.thisIndex	allrep_3nback.thisRepN	allrep_3nback.thisTrialN	allrep_3nback.thisN	allrep_3nback.thisIndex	trials_3nback.thisRepN	trials_3nback.thisTrialN	trials_3nback.thisN	trials_3nback.thisIndex	allrep_4nback.thisRepN	allrep_4nback.thisTrialN	allrep_4nback.thisN	allrep_4nback.thisIndex	trials_4nback.thisRepN	trials_4nback.thisTrialN	trials_4nback.thisN	trials_4nback.thisIndex	buffer02_txt.started	test_griddot_resp2.started	test_griddot_resp2.keys	test_griddot_resp2.rt	buffer23_txt.started	test_griddot_resp3.started	test_griddot_resp3.keys	test_griddot_resp3.rt	buffer34_txt.started	test_griddot_resp4.started	test_griddot_resp4.keys	test_griddot_resp4.rt	confirm_resp.started	confirm_resp.keys	confirm_resp.rt	buffer02_txt.stopped	instr_text_2.started	griddot_resp2.started	griddot_resp2.keys	griddot_resp2.rt	buffer23_txt.stopped	griddot_resp3.started	griddot_resp3.keys	griddot_resp3.rt	buffer34_txt.stopped	griddot_resp4.started	griddot_resp4.keys	griddot_resp4.rt	participant	session	date	expName	psychopyVersion	frameRate	...76
[(0, 0), (0, 0), (0, 0), (0, 2), (0, 0), (1, 0), (0, 1), (0, 0)]	0	0	0	0	0	0	0	211	NA	NA	NA	NA	NA	NA	NA	NA	NA	NA	NA	NA	NA	NA	NA	NA	NA	NA	NA	NA	NA	NA	NA	NA	NA	NA	NA	NA	NA	NA	NA	NA	286.13681459985673	290.43638579989783	['left', 'left', 'right', 'left', 'left']	[5.027228599879891, 7.667740999953821, 9.568984399782494, 12.219456099905074, 14.153727099997923]	NA	NA	NA	NA	NA	NA	NA	NA	NA	NA	NA	NA	NA	NA	NA	NA	NA	NA	NA	NA	NA	NA	NA	NA	mfi	001	2026-02-20_14h35.22.933	SS	2023.1.0	60.04819469851661	NA
[(1, 2), (1, 1), (1, 1), (2, 2), (1, 1), (0, 2), (2, 2), (0, 2)]	0	0	0	0	0	1	1	671	NA	NA	NA	NA	NA	NA	NA	NA	NA	NA	NA	NA	NA	NA	NA	NA	NA	NA	NA	NA	NA	NA	NA	NA	NA	NA	NA	NA	NA	NA	NA	NA	NA	307.20433259988204	['left', 'left', 'right', 'left', 'left', 'right']	[5.753496399847791, 7.122170199872926, 8.923426499823108, 11.392215699888766, 13.431714599952102, 15.855851999949664]	NA	NA	NA	NA	NA	NA	NA	NA	NA	NA	NA	NA	NA	NA	NA	NA	NA	NA	NA	NA	NA	NA	NA	NA	mfi	001	2026-02-20_14h35.22.933	SS	2023.1.0	60.04819469851661	NA
[(0, 0), (1, 2), (2, 2), (1, 1), (1, 1), (2, 1), (1, 1), (2, 1)]	0	0	0	0	0	2	2	327	NA	NA	NA	NA	NA	NA	NA	NA	NA	NA	NA	NA	NA	NA	NA	NA	NA	NA	NA	NA	NA	NA	NA	NA	NA	NA	NA	NA	NA	NA	NA	NA	NA	324.19824120006524	['left', 'left', 'left', 'left', 'right', 'right']	[4.8186991000548005, 7.341009899973869, 9.816587199922651, 11.272709199925885, 13.03155960002914, 15.248890300048515]	NA	NA	NA	NA	NA	NA	NA	NA	NA	NA	NA	NA	NA	NA	NA	NA	NA	NA	NA	NA	NA	NA	NA	NA	mfi	001	2026-02-20_14h35.22.933	SS	2023.1.0	60.04819469851661	NA
[(1, 2), (2, 0), (1, 1), (1, 2), (1, 2), (0, 0), (0, 0), (2, 0), (0, 0)]	0	0	0	0	NA	NA	NA	NA	0	0	0	243	NA	NA	NA	NA	NA	NA	NA	NA	NA	NA	NA	NA	NA	NA	NA	NA	NA	NA	NA	NA	NA	NA	NA	NA	NA	NA	NA	NA	NA	NA	NA	NA	341.12929359986447	345.21199089987203	['right', 'left', 'left', 'left', 'left', 'right']	[7.448630499886349, 9.722765499958768, 12.017282699933276, 13.558392799925059, 15.72071829997003, 17.329893599962816]	NA	NA	NA	NA	NA	NA	NA	NA	NA	NA	NA	NA	NA	NA	NA	NA	NA	NA	NA	NA	mfi	001	2026-02-20_14h35.22.933	SS	2023.1.0	60.04819469851661	NA
[(1, 2), (0, 0), (1, 1), (1, 2), (0, 0), (2, 1), (2, 2), (2, 1), (0, 0)]	0	0	0	0	NA	NA	NA	NA	0	1	1	680	NA	NA	NA	NA	NA	NA	NA	NA	NA	NA	NA	NA	NA	NA	NA	NA	NA	NA	NA	NA	NA	NA	NA	NA	NA	NA	NA	NA	NA	NA	NA	NA	NA	364.1804036998656	['right', 'left', 'left']	[7.8229021998122334, 14.029357499908656, 16.17072069994174]	NA	NA	NA	NA	NA	NA	NA	NA	NA	NA	NA	NA	NA	NA	NA	NA	NA	NA	NA	NA	mfi	001	2026-02-20_14h35.22.933	SS	2023.1.0	60.04819469851661	NA
[(2, 0), (2, 2), (1, 2), (2, 0), (0, 1), (2, 2), (2, 0), (2, 2), (0, 1)]	0	0	0	0	NA	NA	NA	NA	0	2	2	54	NA	NA	NA	NA	NA	NA	NA	NA	NA	NA	NA	NA	NA	NA	NA	NA	NA	NA	NA	NA	NA	NA	NA	NA	NA	NA	NA	NA	NA	NA	NA	NA	NA	383.1762953000143	['right', 'left', 'right', 'left', 'right']	[7.06925840000622, 9.390363899990916, 11.872490500099957, 13.381640899926424, 15.358934200135991]	NA	NA	NA	NA	NA	NA	NA	NA	NA	NA	NA	NA	NA	NA	NA	NA	NA	NA	NA	NA	mfi	001	2026-02-20_14h35.22.933	SS	2023.1.0	60.04819469851661	NA
[(1, 1), (1, 2), (0, 0), (0, 1), (1, 1), (1, 2), (2, 2), (1, 2), (1, 0), (0, 2)]	0	0	0	0	NA	NA	NA	NA	NA	NA	NA	NA	0	0	0	356	NA	NA	NA	NA	NA	NA	NA	NA	NA	NA	NA	NA	NA	NA	NA	NA	NA	NA	NA	NA	NA	NA	NA	NA	NA	NA	NA	NA	NA	NA	NA	NA	402.1374218999408	406.2202794998884	['right', 'right', 'left', 'left', 'left']	[8.916536699980497, 11.24676109990105, 13.126001099823043, 15.484329900005832, 17.788028500042856]	NA	NA	NA	NA	NA	NA	NA	NA	NA	NA	NA	NA	NA	NA	NA	NA	mfi	001	2026-02-20_14h35.22.933	SS	2023.1.0	60.04819469851661	NA
[(2, 0), (2, 1), (2, 1), (1, 1), (2, 0), (2, 2), (2, 1), (2, 2), (0, 1), (0, 1)]	0	0	0	0	NA	NA	NA	NA	NA	NA	NA	NA	0	1	1	590	NA	NA	NA	NA	NA	NA	NA	NA	NA	NA	NA	NA	NA	NA	NA	NA	NA	NA	NA	NA	NA	NA	NA	NA	NA	NA	NA	NA	NA	NA	NA	NA	NA	427.200563600054	['right', 'left', 'right', 'left', 'left', 'left']	[9.070599399972707, 11.088943199953064, 14.020525600062683, 15.059628400020301, 17.145922200055793, 19.870368800126016]	NA	NA	NA	NA	NA	NA	NA	NA	NA	NA	NA	NA	NA	NA	NA	NA	mfi	001	2026-02-20_14h35.22.933	SS	2023.1.0	60.04819469851661	NA
[(0, 0), (2, 0), (2, 2), (1, 2), (0, 0), (2, 1), (2, 2), (1, 2), (1, 2), (2, 2)]	0	0	0	0	NA	NA	NA	NA	NA	NA	NA	NA	0	2	2	328	NA	NA	NA	NA	NA	NA	NA	NA	NA	NA	NA	NA	NA	NA	NA	NA	NA	NA	NA	NA	NA	NA	NA	NA	NA	NA	NA	NA	NA	NA	NA	NA	NA	448.18491199985147	['left', 'right', 'right', 'right', 'left', 'left']	[3.0119647001847625, 9.083833200158551, 11.478392699966207, 14.092252500122413, 14.583612099988386, 17.45239039999433]	NA	NA	NA	NA	NA	NA	NA	NA	NA	NA	NA	NA	NA	NA	NA	NA	mfi	001	2026-02-20_14h35.22.933	SS	2023.1.0	60.04819469851661	NA
NA	0	0	0	0	NA	NA	NA	NA	NA	NA	NA	NA	NA	NA	NA	NA	NA	NA	NA	NA	NA	NA	NA	NA	NA	NA	NA	NA	NA	NA	NA	NA	NA	NA	NA	NA	NA	NA	NA	NA	NA	NA	NA	NA	NA	NA	NA	NA	NA	NA	NA	NA	468.1281387999188	n	22.29120680014603	NA	NA	NA	NA	NA	NA	NA	NA	NA	NA	NA	NA	NA	mfi	001	2026-02-20_14h35.22.933	SS	2023.1.0	60.04819469851661	NA
[(2, 1), (1, 2), (1, 0), (1, 2), (1, 0), (0, 2), (0, 0), (1, 2)]	1	0	1	0	0	0	0	612	NA	NA	NA	NA	NA	NA	NA	NA	NA	NA	NA	NA	NA	NA	NA	NA	NA	NA	NA	NA	NA	NA	NA	NA	NA	NA	NA	NA	NA	NA	NA	NA	491.4417405000422	495.5246439999901	['left', 'right', 'right', 'left', 'left', 'left']	[4.801302500069141, 7.161389800021425, 9.849245900055394, 11.238373999949545, 13.056659399997443, 15.131777599919587]	NA	NA	NA	NA	NA	NA	NA	NA	NA	NA	NA	494.5243565000128	NA	NA	NA	NA	NA	NA	NA	NA	NA	NA	NA	NA	mfi	001	2026-02-20_14h35.22.933	SS	2023.1.0	60.04819469851661	NA
[(0, 2), (2, 0), (0, 1), (2, 0), (1, 2), (2, 0), (1, 1), (2, 2)]	1	0	1	0	0	1	1	172	NA	NA	NA	NA	NA	NA	NA	NA	NA	NA	NA	NA	NA	NA	NA	NA	NA	NA	NA	NA	NA	NA	NA	NA	NA	NA	NA	NA	NA	NA	NA	NA	NA	512.5389832998626	['left', 'right', 'left', 'right', 'left', 'left']	[4.851717999903485, 6.860703599872068, 9.11900689988397, 11.427218599943444, 13.610405699815601, 15.287695899838582]	NA	NA	NA	NA	NA	NA	NA	NA	NA	NA	NA	NA	NA	NA	NA	NA	NA	NA	NA	NA	NA	NA	NA	NA	mfi	001	2026-02-20_14h35.22.933	SS	2023.1.0	60.04819469851661	NA
[(2, 0), (2, 1), (2, 1), (2, 1), (2, 1), (0, 0), (1, 2), (1, 1)]	1	0	1	0	0	2	2	273	NA	NA	NA	NA	NA	NA	NA	NA	NA	NA	NA	NA	NA	NA	NA	NA	NA	NA	NA	NA	NA	NA	NA	NA	NA	NA	NA	NA	NA	NA	NA	NA	NA	529.5197133999318	['left', 'right', 'right', 'left', 'left', 'left']	[5.400228000013158, 7.410667999880388, 9.371607000008225, 11.130922599928454, 12.837970099877566, 15.303751699859276]	NA	NA	NA	NA	NA	NA	NA	NA	NA	NA	NA	NA	NA	NA	NA	NA	NA	NA	NA	NA	NA	NA	NA	NA	mfi	001	2026-02-20_14h35.22.933	SS	2023.1.0	60.04819469851661	NA
[(1, 0), (1, 1), (1, 0), (0, 0), (2, 2), (2, 1), (0, 0), (2, 2), (0, 0)]	1	0	1	0	NA	NA	NA	NA	0	0	0	656	NA	NA	NA	NA	NA	NA	NA	NA	NA	NA	NA	NA	NA	NA	NA	NA	NA	NA	NA	NA	NA	NA	NA	NA	NA	NA	NA	NA	NA	NA	NA	NA	546.4508207000326	550.5170201000292	['left', 'left', 'left', 'right', 'left', 'right']	[6.881281200097874, 9.080325100105256, 11.073493200121447, 14.139116999926046, 14.962186000077054, 17.60682069999166]	NA	NA	NA	NA	NA	NA	NA	NA	NA	NA	NA	NA	NA	NA	NA	NA	NA	NA	NA	NA	mfi	001	2026-02-20_14h35.22.933	SS	2023.1.0	60.04819469851661	NA
[(1, 0), (0, 2), (1, 1), (2, 0), (0, 0), (1, 1), (2, 0), (1, 1), (2, 0)]	1	0	1	0	NA	NA	NA	NA	0	1	1	703	NA	NA	NA	NA	NA	NA	NA	NA	NA	NA	NA	NA	NA	NA	NA	NA	NA	NA	NA	NA	NA	NA	NA	NA	NA	NA	NA	NA	NA	NA	NA	NA	NA	569.5141954999417	['left', 'left', 'left', 'right']	[7.35366820008494, 8.960800800006837, 11.53418350010179, 15.224822500022128]	NA	NA	NA	NA	NA	NA	NA	NA	NA	NA	NA	NA	NA	NA	NA	NA	NA	NA	NA	NA	mfi	001	2026-02-20_14h35.22.933	SS	2023.1.0	60.04819469851661	NA
[(1, 1), (0, 2), (0, 2), (2, 1), (0, 2), (1, 2), (2, 1), (2, 0), (0, 2)]	1	0	1	0	NA	NA	NA	NA	0	2	2	352	NA	NA	NA	NA	NA	NA	NA	NA	NA	NA	NA	NA	NA	NA	NA	NA	NA	NA	NA	NA	NA	NA	NA	NA	NA	NA	NA	NA	NA	NA	NA	NA	NA	588.4946953000035	['left', 'left', 'left', 'right', 'left', 'right']	[7.114285700023174, 9.323747900081798, 11.561862000031397, 13.131190899992362, 16.178775700042024, 17.515801100060344]	NA	NA	NA	NA	NA	NA	NA	NA	NA	NA	NA	NA	NA	NA	NA	NA	NA	NA	NA	NA	mfi	001	2026-02-20_14h35.22.933	SS	2023.1.0	60.04819469851661	NA
[(2, 1), (0, 2), (0, 2), (0, 2), (2, 1), (1, 1), (0, 2), (1, 1), (1, 2), (1, 2)]	1	0	1	0	NA	NA	NA	NA	NA	NA	NA	NA	0	0	0	103	NA	NA	NA	NA	NA	NA	NA	NA	NA	NA	NA	NA	NA	NA	NA	NA	NA	NA	NA	NA	NA	NA	NA	NA	NA	NA	NA	NA	NA	NA	NA	NA	607.4589541000314	611.5249840999022	['right', 'left', 'right', 'left', 'left']	[9.373340799938887, 11.096544799860567, 13.584144699852914, 17.014359399909154, 19.175966299837455]	NA	NA	NA	NA	NA	NA	NA	NA	NA	NA	NA	NA	NA	NA	NA	NA	mfi	001	2026-02-20_14h35.22.933	SS	2023.1.0	60.04819469851661	NA
[(0, 2), (2, 0), (2, 1), (2, 0), (2, 1), (2, 0), (2, 1), (1, 2), (0, 2), (2, 0)]	1	0	1	0	NA	NA	NA	NA	NA	NA	NA	NA	0	1	1	320	NA	NA	NA	NA	NA	NA	NA	NA	NA	NA	NA	NA	NA	NA	NA	NA	NA	NA	NA	NA	NA	NA	NA	NA	NA	NA	NA	NA	NA	NA	NA	NA	NA	632.5387740998995	['left', 'right', 'right', 'left', 'left', 'right']	[9.0827645000536, 11.862705199979246, 13.18217599997297, 14.789700499968603, 17.44597000000067, 19.03611300000921]	NA	NA	NA	NA	NA	NA	NA	NA	NA	NA	NA	NA	NA	NA	NA	NA	mfi	001	2026-02-20_14h35.22.933	SS	2023.1.0	60.04819469851661	NA
[(0, 1), (2, 0), (2, 1), (2, 0), (2, 2), (0, 1), (0, 0), (2, 0), (2, 2), (0, 0)]	1	0	1	0	NA	NA	NA	NA	NA	NA	NA	NA	0	2	2	389	NA	NA	NA	NA	NA	NA	NA	NA	NA	NA	NA	NA	NA	NA	NA	NA	NA	NA	NA	NA	NA	NA	NA	NA	NA	NA	NA	NA	NA	NA	NA	NA	NA	653.5190768998582	['left', 'left', 'left', 'right', 'right']	[8.68672680016607, 11.482920200098306, 13.03455390012823, 16.883949000155553, 19.3557927000802]	NA	NA	NA	NA	NA	NA	NA	NA	NA	NA	NA	NA	NA	NA	NA	NA	mfi	001	2026-02-20_14h35.22.933	SS	2023.1.0	60.04819469851661	NA
NA	1	0	1	0	NA	NA	NA	NA	NA	NA	NA	NA	NA	NA	NA	NA	NA	NA	NA	NA	NA	NA	NA	NA	NA	NA	NA	NA	NA	NA	NA	NA	NA	NA	NA	NA	NA	NA	NA	NA	NA	NA	NA	NA	NA	NA	NA	NA	NA	NA	NA	NA	673.4543510999065	y	6.046873399987817	NA	NA	NA	NA	NA	NA	NA	NA	NA	NA	NA	NA	NA	mfi	001	2026-02-20_14h35.22.933	SS	2023.1.0	60.04819469851661	NA
[(1, 1), (0, 1), (1, 1), (2, 2), (2, 1), (2, 2), (1, 0), (0, 2)]	NA	NA	NA	NA	NA	NA	NA	NA	NA	NA	NA	NA	NA	NA	NA	NA	0	0	0	0	0	0	0	456	NA	NA	NA	NA	NA	NA	NA	NA	NA	NA	NA	NA	NA	NA	NA	NA	723.8472116999328	NA	NA	NA	NA	NA	NA	NA	NA	NA	NA	NA	NA	NA	NA	726.9256587000564	679.5205590999685	727.92544859997	['left', 'right', 'left', 'left', 'right', 'left', 'left']	[4.89165800018236, 5.1496644001454115, 7.236673600040376, 9.073900800198317, 10.945336100179702, 13.037625900004059, 14.944883699994534]	NA	NA	NA	NA	NA	NA	NA	NA	mfi	001	2026-02-20_14h35.22.933	SS	2023.1.0	60.04819469851661	NA
[(1, 1), (0, 0), (0, 1), (1, 0), (2, 1), (1, 2), (2, 1), (1, 2)]	NA	NA	NA	NA	NA	NA	NA	NA	NA	NA	NA	NA	NA	NA	NA	NA	0	0	0	0	0	1	1	97	NA	NA	NA	NA	NA	NA	NA	NA	NA	NA	NA	NA	NA	NA	NA	NA	NA	NA	NA	NA	NA	NA	NA	NA	NA	NA	NA	NA	NA	NA	NA	NA	NA	744.9231944000348	['left', 'left', 'left', 'left', 'right', 'right']	[4.99727619998157, 7.3460043000523, 8.997527800034732, 10.936893000034615, 13.006859499961138, 15.024951299885288]	NA	NA	NA	NA	NA	NA	NA	NA	mfi	001	2026-02-20_14h35.22.933	SS	2023.1.0	60.04819469851661	NA
[(0, 1), (0, 0), (2, 2), (0, 0), (2, 1), (0, 0), (2, 0), (2, 0)]	NA	NA	NA	NA	NA	NA	NA	NA	NA	NA	NA	NA	NA	NA	NA	NA	0	0	0	0	0	2	2	515	NA	NA	NA	NA	NA	NA	NA	NA	NA	NA	NA	NA	NA	NA	NA	NA	NA	NA	NA	NA	NA	NA	NA	NA	NA	NA	NA	NA	NA	NA	NA	NA	NA	761.9207820999436	['left', 'right', 'left', 'left', 'left', 'left']	[4.833359000040218, 6.812679999973625, 9.564191800076514, 11.681256500072777, 13.075849799904972, 15.048391500022262]	NA	NA	NA	NA	NA	NA	NA	NA	mfi	001	2026-02-20_14h35.22.933	SS	2023.1.0	60.04819469851661	NA
[(0, 1), (0, 2), (0, 1), (2, 2), (1, 1), (2, 2), (2, 2), (0, 1)]	NA	NA	NA	NA	NA	NA	NA	NA	NA	NA	NA	NA	NA	NA	NA	NA	0	0	0	0	0	3	3	422	NA	NA	NA	NA	NA	NA	NA	NA	NA	NA	NA	NA	NA	NA	NA	NA	NA	NA	NA	NA	NA	NA	NA	NA	NA	NA	NA	NA	NA	NA	NA	NA	NA	778.9185846999753	['right', 'left', 'left', 'right', 'left']	[5.174788299947977, 7.4935215001460165, 9.203369500115514, 11.49069430003874, 13.772650300059468]	NA	NA	NA	NA	NA	NA	NA	NA	mfi	001	2026-02-20_14h35.22.933	SS	2023.1.0	60.04819469851661	NA
[(0, 2), (2, 2), (0, 2), (1, 1), (1, 0), (1, 0), (1, 2), (1, 0)]	NA	NA	NA	NA	NA	NA	NA	NA	NA	NA	NA	NA	NA	NA	NA	NA	0	0	0	0	0	4	4	263	NA	NA	NA	NA	NA	NA	NA	NA	NA	NA	NA	NA	NA	NA	NA	NA	NA	NA	NA	NA	NA	NA	NA	NA	NA	NA	NA	NA	NA	NA	NA	NA	NA	795.8994868998416	['right', 'left', 'left', 'left', 'left', 'right']	[4.663171699969098, 6.8793835998512805, 9.29201540001668, 11.24505509994924, 12.992176400031894, 14.757897699950263]	NA	NA	NA	NA	NA	NA	NA	NA	mfi	001	2026-02-20_14h35.22.933	SS	2023.1.0	60.04819469851661	NA
[(0, 0), (1, 1), (0, 0), (0, 2), (0, 1), (0, 2), (0, 1), (0, 1)]	NA	NA	NA	NA	NA	NA	NA	NA	NA	NA	NA	NA	NA	NA	NA	NA	0	0	0	0	0	5	5	161	NA	NA	NA	NA	NA	NA	NA	NA	NA	NA	NA	NA	NA	NA	NA	NA	NA	NA	NA	NA	NA	NA	NA	NA	NA	NA	NA	NA	NA	NA	NA	NA	NA	812.9303547998425	['right', 'left', 'left', 'right', 'right']	[4.934918700018898, 7.1976856999099255, 8.914772700052708, 10.844841700047255, 14.814493299927562]	NA	NA	NA	NA	NA	NA	NA	NA	mfi	001	2026-02-20_14h35.22.933	SS	2023.1.0	60.04819469851661	NA
NA	NA	NA	NA	NA	NA	NA	NA	NA	NA	NA	NA	NA	NA	NA	NA	NA	0	0	0	0	NA	NA	NA	NA	NA	NA	NA	NA	NA	NA	NA	NA	NA	NA	NA	NA	NA	NA	NA	NA	NA	NA	NA	NA	NA	NA	NA	NA	NA	NA	NA	NA	NA	NA	NA	NA	NA	NA	NA	NA	NA	NA	NA	NA	NA	NA	NA	NA	mfi	001	2026-02-20_14h35.22.933	SS	2023.1.0	60.04819469851661	NA
[(1, 2), (0, 1), (1, 2), (1, 2), (1, 2), (2, 0), (2, 1), (2, 1)]	NA	NA	NA	NA	NA	NA	NA	NA	NA	NA	NA	NA	NA	NA	NA	NA	1	0	1	0	0	0	0	370	NA	NA	NA	NA	NA	NA	NA	NA	NA	NA	NA	NA	NA	NA	NA	NA	NA	NA	NA	NA	NA	NA	NA	NA	NA	NA	NA	NA	NA	NA	NA	NA	NA	832.5821519999299	['right', 'left', 'right', 'left', 'left', 'left']	[4.666850900044665, 7.124323300085962, 9.236326300073415, 11.040859800064936, 12.99199020001106, 15.223860200028867]	NA	NA	NA	NA	NA	NA	NA	NA	mfi	001	2026-02-20_14h35.22.933	SS	2023.1.0	60.04819469851661	NA
[(2, 0), (1, 1), (2, 0), (1, 1), (1, 1), (1, 0), (2, 2), (1, 2)]	NA	NA	NA	NA	NA	NA	NA	NA	NA	NA	NA	NA	NA	NA	NA	NA	1	0	1	0	0	1	1	466	NA	NA	NA	NA	NA	NA	NA	NA	NA	NA	NA	NA	NA	NA	NA	NA	NA	NA	NA	NA	NA	NA	NA	NA	NA	NA	NA	NA	NA	NA	NA	NA	NA	849.5940995998681	['right', 'right', 'left', 'left', 'left', 'left']	[4.688523499993607, 7.224224699893966, 9.27348340000026, 11.050217399839312, 12.978410599986091, 14.783683199901134]	NA	NA	NA	NA	NA	NA	NA	NA	mfi	001	2026-02-20_14h35.22.933	SS	2023.1.0	60.04819469851661	NA
[(2, 2), (2, 2), (1, 0), (2, 0), (0, 0), (2, 0), (0, 0), (2, 2)]	NA	NA	NA	NA	NA	NA	NA	NA	NA	NA	NA	NA	NA	NA	NA	NA	1	0	1	0	0	2	2	167	NA	NA	NA	NA	NA	NA	NA	NA	NA	NA	NA	NA	NA	NA	NA	NA	NA	NA	NA	NA	NA	NA	NA	NA	NA	NA	NA	NA	NA	NA	NA	NA	NA	866.5934086998459	['left', 'left', 'left', 'right', 'right', 'left']	[5.083377899834886, 6.942565999925137, 8.998550300020725, 11.470954699907452, 13.537186600035056, 15.603588599944487]	NA	NA	NA	NA	NA	NA	NA	NA	mfi	001	2026-02-20_14h35.22.933	SS	2023.1.0	60.04819469851661	NA
[(2, 0), (1, 1), (1, 1), (1, 2), (2, 2), (0, 0), (2, 2), (0, 0)]	NA	NA	NA	NA	NA	NA	NA	NA	NA	NA	NA	NA	NA	NA	NA	NA	1	0	1	0	0	3	3	582	NA	NA	NA	NA	NA	NA	NA	NA	NA	NA	NA	NA	NA	NA	NA	NA	NA	NA	NA	NA	NA	NA	NA	NA	NA	NA	NA	NA	NA	NA	NA	NA	NA	883.5871599998791	['right', 'left', 'left', 'left', 'right', 'right']	[5.083875000011176, 7.126106499927118, 9.120522200129926, 11.222729699919, 13.607192999916151, 15.575898600043729]	NA	NA	NA	NA	NA	NA	NA	NA	mfi	001	2026-02-20_14h35.22.933	SS	2023.1.0	60.04819469851661	NA
[(2, 0), (1, 1), (0, 2), (1, 1), (2, 0), (1, 1), (0, 2), (1, 0)]	NA	NA	NA	NA	NA	NA	NA	NA	NA	NA	NA	NA	NA	NA	NA	NA	1	0	1	0	0	4	4	543	NA	NA	NA	NA	NA	NA	NA	NA	NA	NA	NA	NA	NA	NA	NA	NA	NA	NA	NA	NA	NA	NA	NA	NA	NA	NA	NA	NA	NA	NA	NA	NA	NA	900.5848115000408	['left', 'left', 'left', 'right', 'left', 'left']	[4.783573199994862, 7.0467610999476165, 9.183068699901924, 11.087359800003469, 13.32585999998264, 15.074851999990642]	NA	NA	NA	NA	NA	NA	NA	NA	mfi	001	2026-02-20_14h35.22.933	SS	2023.1.0	60.04819469851661	NA
[(1, 1), (2, 0), (1, 1), (2, 0), (2, 0), (2, 2), (0, 1), (0, 0)]	NA	NA	NA	NA	NA	NA	NA	NA	NA	NA	NA	NA	NA	NA	NA	NA	1	0	1	0	0	5	5	165	NA	NA	NA	NA	NA	NA	NA	NA	NA	NA	NA	NA	NA	NA	NA	NA	NA	NA	NA	NA	NA	NA	NA	NA	NA	NA	NA	NA	NA	NA	NA	NA	NA	917.5693985999096	['left', 'right', 'left', 'left', 'left', 'left', 'left']	[2.89198899990879, 5.025440900120884, 7.43675999995321, 10.034663799917325, 11.521457599941641, 12.98870430001989, 15.0799978999421]	NA	NA	NA	NA	NA	NA	NA	NA	mfi	001	2026-02-20_14h35.22.933	SS	2023.1.0	60.04819469851661	NA
NA	NA	NA	NA	NA	NA	NA	NA	NA	NA	NA	NA	NA	NA	NA	NA	NA	1	0	1	0	NA	NA	NA	NA	NA	NA	NA	NA	NA	NA	NA	NA	NA	NA	NA	NA	NA	NA	NA	NA	NA	NA	NA	NA	NA	NA	NA	NA	NA	NA	NA	NA	NA	NA	NA	NA	NA	NA	NA	NA	NA	NA	NA	NA	NA	NA	NA	NA	mfi	001	2026-02-20_14h35.22.933	SS	2023.1.0	60.04819469851661	NA
[(1, 0), (1, 2), (0, 1), (1, 0), (1, 2), (0, 0), (0, 0), (2, 1), (0, 0)]	NA	NA	NA	NA	NA	NA	NA	NA	NA	NA	NA	NA	NA	NA	NA	NA	NA	NA	NA	NA	NA	NA	NA	NA	0	0	0	0	0	0	0	313	NA	NA	NA	NA	NA	NA	NA	NA	NA	NA	NA	NA	935.1011504000052	NA	NA	NA	NA	NA	NA	NA	NA	NA	NA	NA	NA	NA	NA	NA	938.1798652999568	939.1961641998496	['right', 'right', 'left', 'left', 'left', 'right']	[7.154745900072157, 9.163029700051993, 10.787013900000602, 12.828858900116757, 14.96310850000009, 17.1055265001487]	NA	NA	NA	NA	mfi	001	2026-02-20_14h35.22.933	SS	2023.1.0	60.04819469851661	NA
[(1, 0), (1, 0), (0, 0), (1, 0), (0, 0), (0, 1), (2, 2), (0, 0), (2, 1)]	NA	NA	NA	NA	NA	NA	NA	NA	NA	NA	NA	NA	NA	NA	NA	NA	NA	NA	NA	NA	NA	NA	NA	NA	0	0	0	0	0	1	1	554	NA	NA	NA	NA	NA	NA	NA	NA	NA	NA	NA	NA	NA	NA	NA	NA	NA	NA	NA	NA	NA	NA	NA	NA	NA	NA	NA	NA	NA	958.17680320004	['right', 'left', 'left', 'left', 'right', 'left']	[7.0462190001271665, 9.549573100171983, 11.708720300113782, 13.145409000106156, 14.77588940015994, 17.065095100086182]	NA	NA	NA	NA	mfi	001	2026-02-20_14h35.22.933	SS	2023.1.0	60.04819469851661	NA
[(0, 0), (1, 0), (2, 2), (2, 2), (1, 0), (0, 0), (1, 2), (1, 0), (2, 0)]	NA	NA	NA	NA	NA	NA	NA	NA	NA	NA	NA	NA	NA	NA	NA	NA	NA	NA	NA	NA	NA	NA	NA	NA	0	0	0	0	0	2	2	425	NA	NA	NA	NA	NA	NA	NA	NA	NA	NA	NA	NA	NA	NA	NA	NA	NA	NA	NA	NA	NA	NA	NA	NA	NA	NA	NA	NA	NA	977.1613034999464	['left', 'right', 'right', 'left', 'right', 'left']	[7.243786400184035, 9.060147900134325, 11.485499300062656, 12.9180076001212, 15.65435430011712, 16.9246323001571]	NA	NA	NA	NA	mfi	001	2026-02-20_14h35.22.933	SS	2023.1.0	60.04819469851661	NA
[(0, 2), (2, 1), (1, 2), (0, 1), (2, 0), (1, 2), (1, 0), (2, 2), (1, 2)]	NA	NA	NA	NA	NA	NA	NA	NA	NA	NA	NA	NA	NA	NA	NA	NA	NA	NA	NA	NA	NA	NA	NA	NA	0	0	0	0	0	3	3	684	NA	NA	NA	NA	NA	NA	NA	NA	NA	NA	NA	NA	NA	NA	NA	NA	NA	NA	NA	NA	NA	NA	NA	NA	NA	NA	NA	NA	NA	996.1718076998368	['left', 'left', 'left', 'left', 'left', 'right']	[7.185700699919835, 9.174939599819481, 12.059535400010645, 13.861137799918652, 15.216170699801296, 17.506388299865648]	NA	NA	NA	NA	mfi	001	2026-02-20_14h35.22.933	SS	2023.1.0	60.04819469851661	NA
[(2, 2), (1, 1), (1, 0), (2, 2), (1, 1), (0, 2), (1, 1), (1, 1), (1, 2)]	NA	NA	NA	NA	NA	NA	NA	NA	NA	NA	NA	NA	NA	NA	NA	NA	NA	NA	NA	NA	NA	NA	NA	NA	0	0	0	0	0	4	4	94	NA	NA	NA	NA	NA	NA	NA	NA	NA	NA	NA	NA	NA	NA	NA	NA	NA	NA	NA	NA	NA	NA	NA	NA	NA	NA	NA	NA	NA	1015.1688320999964	['right', 'right', 'left', 'right', 'left', 'left']	[6.897868300089613, 9.191877600038424, 11.032241400098428, 13.439403400057927, 14.880877899937332, 17.478335000108927]	NA	NA	NA	NA	mfi	001	2026-02-20_14h35.22.933	SS	2023.1.0	60.04819469851661	NA
[(2, 1), (1, 2), (1, 2), (2, 0), (0, 2), (1, 2), (2, 2), (0, 2), (2, 0)]	NA	NA	NA	NA	NA	NA	NA	NA	NA	NA	NA	NA	NA	NA	NA	NA	NA	NA	NA	NA	NA	NA	NA	NA	0	0	0	0	0	5	5	626	NA	NA	NA	NA	NA	NA	NA	NA	NA	NA	NA	NA	NA	NA	NA	NA	NA	NA	NA	NA	NA	NA	NA	NA	NA	NA	NA	NA	NA	1034.1829533998389	['left', 'left', 'left', 'left', 'right', 'right']	[6.967270799912512, 8.958407799946144, 10.938627899857238, 12.97245499980636, 15.046717399964109, 17.674310499802232]	NA	NA	NA	NA	mfi	001	2026-02-20_14h35.22.933	SS	2023.1.0	60.04819469851661	NA
NA	NA	NA	NA	NA	NA	NA	NA	NA	NA	NA	NA	NA	NA	NA	NA	NA	NA	NA	NA	NA	NA	NA	NA	NA	0	0	0	0	NA	NA	NA	NA	NA	NA	NA	NA	NA	NA	NA	NA	NA	NA	NA	NA	NA	NA	NA	NA	NA	NA	NA	NA	NA	NA	NA	NA	NA	NA	NA	NA	NA	NA	NA	NA	NA	NA	NA	NA	mfi	001	2026-02-20_14h35.22.933	SS	2023.1.0	60.04819469851661	NA
[(0, 2), (2, 1), (2, 2), (0, 2), (2, 2), (2, 2), (2, 1), (2, 2), (0, 1)]	NA	NA	NA	NA	NA	NA	NA	NA	NA	NA	NA	NA	NA	NA	NA	NA	NA	NA	NA	NA	NA	NA	NA	NA	1	0	1	0	0	0	0	115	NA	NA	NA	NA	NA	NA	NA	NA	NA	NA	NA	NA	NA	NA	NA	NA	NA	NA	NA	NA	NA	NA	NA	NA	NA	NA	NA	NA	NA	1055.1134235998616	['right', 'right', 'right', 'left', 'right', 'left']	[6.612304999958724, 9.394033999880776, 10.944304100004956, 12.975712299812585, 15.313116799807176, 17.53555819997564]	NA	NA	NA	NA	mfi	001	2026-02-20_14h35.22.933	SS	2023.1.0	60.04819469851661	NA
[(2, 0), (2, 0), (2, 1), (0, 0), (2, 0), (1, 1), (0, 0), (0, 2), (0, 1)]	NA	NA	NA	NA	NA	NA	NA	NA	NA	NA	NA	NA	NA	NA	NA	NA	NA	NA	NA	NA	NA	NA	NA	NA	1	0	1	0	0	1	1	34	NA	NA	NA	NA	NA	NA	NA	NA	NA	NA	NA	NA	NA	NA	NA	NA	NA	NA	NA	NA	NA	NA	NA	NA	NA	NA	NA	NA	NA	1074.1108263998758	['left', 'left', 'left', 'right', 'left', 'left']	[6.902141899801791, 9.468507899902761, 11.23991829995066, 12.947102800011635, 14.729257999919355, 17.11153409979306]	NA	NA	NA	NA	mfi	001	2026-02-20_14h35.22.933	SS	2023.1.0	60.04819469851661	NA
[(0, 0), (0, 1), (0, 1), (1, 1), (0, 1), (1, 2), (0, 0), (0, 1), (1, 2)]	NA	NA	NA	NA	NA	NA	NA	NA	NA	NA	NA	NA	NA	NA	NA	NA	NA	NA	NA	NA	NA	NA	NA	NA	1	0	1	0	0	2	2	7	NA	NA	NA	NA	NA	NA	NA	NA	NA	NA	NA	NA	NA	NA	NA	NA	NA	NA	NA	NA	NA	NA	NA	NA	NA	NA	NA	NA	NA	1093.1081784998532	['left', 'right', 'left', 'left', 'right', 'right']	[7.992422200040892, 9.23747540009208, 10.591590400086716, 12.866863199975342, 14.96292580012232, 17.08468380011618]	NA	NA	NA	NA	mfi	001	2026-02-20_14h35.22.933	SS	2023.1.0	60.04819469851661	NA
[(2, 0), (2, 1), (0, 1), (0, 1), (1, 2), (0, 1), (2, 1), (2, 2), (0, 1)]	NA	NA	NA	NA	NA	NA	NA	NA	NA	NA	NA	NA	NA	NA	NA	NA	NA	NA	NA	NA	NA	NA	NA	NA	1	0	1	0	0	3	3	160	NA	NA	NA	NA	NA	NA	NA	NA	NA	NA	NA	NA	NA	NA	NA	NA	NA	NA	NA	NA	NA	NA	NA	NA	NA	NA	NA	NA	NA	1112.105353999883	['left', 'left', 'left', 'left', 'left', 'right']	[7.038513100007549, 8.954798199934885, 11.461832499830052, 13.743992899777368, 14.826151999877766, 16.911391899921]	NA	NA	NA	NA	mfi	001	2026-02-20_14h35.22.933	SS	2023.1.0	60.04819469851661	NA
[(1, 0), (0, 0), (1, 2), (1, 1), (1, 2), (1, 2), (0, 1), (1, 2), (2, 1)]	NA	NA	NA	NA	NA	NA	NA	NA	NA	NA	NA	NA	NA	NA	NA	NA	NA	NA	NA	NA	NA	NA	NA	NA	1	0	1	0	0	4	4	675	NA	NA	NA	NA	NA	NA	NA	NA	NA	NA	NA	NA	NA	NA	NA	NA	NA	NA	NA	NA	NA	NA	NA	NA	NA	NA	NA	NA	NA	1131.1196967998983	['left', 'left', 'left', 'left', 'right', 'left']	[6.9697898998856544, 9.277059100102633, 11.701399500016123, 13.607666400028393, 14.9016972000245, 16.952898199902847]	NA	NA	NA	NA	mfi	001	2026-02-20_14h35.22.933	SS	2023.1.0	60.04819469851661	NA
[(2, 2), (2, 1), (2, 1), (1, 0), (0, 2), (0, 2), (2, 0), (0, 2), (0, 2)]	NA	NA	NA	NA	NA	NA	NA	NA	NA	NA	NA	NA	NA	NA	NA	NA	NA	NA	NA	NA	NA	NA	NA	NA	1	0	1	0	0	5	5	421	NA	NA	NA	NA	NA	NA	NA	NA	NA	NA	NA	NA	NA	NA	NA	NA	NA	NA	NA	NA	NA	NA	NA	NA	NA	NA	NA	NA	NA	1150.1338907000609	['left', 'left', 'left', 'left', 'left', 'right']	[6.845658800099045, 8.921143100131303, 10.999995399964973, 12.835037800017744, 15.63162130001001, 17.126854800153524]	NA	NA	NA	NA	mfi	001	2026-02-20_14h35.22.933	SS	2023.1.0	60.04819469851661	NA
NA	NA	NA	NA	NA	NA	NA	NA	NA	NA	NA	NA	NA	NA	NA	NA	NA	NA	NA	NA	NA	NA	NA	NA	NA	1	0	1	0	NA	NA	NA	NA	NA	NA	NA	NA	NA	NA	NA	NA	NA	NA	NA	NA	NA	NA	NA	NA	NA	NA	NA	NA	NA	NA	NA	NA	NA	NA	NA	NA	NA	NA	NA	NA	NA	NA	NA	NA	mfi	001	2026-02-20_14h35.22.933	SS	2023.1.0	60.04819469851661	NA
[(1, 2), (2, 2), (0, 0), (1, 1), (1, 2), (1, 2), (0, 0), (1, 2), (1, 0), (2, 2)]	NA	NA	NA	NA	NA	NA	NA	NA	NA	NA	NA	NA	NA	NA	NA	NA	NA	NA	NA	NA	NA	NA	NA	NA	NA	NA	NA	NA	NA	NA	NA	NA	0	0	0	0	0	0	0	232	NA	NA	NA	NA	NA	NA	NA	NA	1169.4809317998588	NA	NA	NA	NA	NA	NA	NA	NA	NA	NA	NA	NA	NA	NA	NA	1172.5637528998775	1173.563674799865	['right', 'left', 'right', 'left', 'left']	[9.053996299859136, 11.13427249994129, 13.012686299858615, 15.031713099917397, 17.43017419986427]	mfi	001	2026-02-20_14h35.22.933	SS	2023.1.0	60.04819469851661	NA
[(1, 1), (1, 1), (0, 1), (0, 0), (1, 0), (2, 0), (0, 1), (0, 0), (2, 0), (2, 2)]	NA	NA	NA	NA	NA	NA	NA	NA	NA	NA	NA	NA	NA	NA	NA	NA	NA	NA	NA	NA	NA	NA	NA	NA	NA	NA	NA	NA	NA	NA	NA	NA	0	0	0	0	0	1	1	663	NA	NA	NA	NA	NA	NA	NA	NA	NA	NA	NA	NA	NA	NA	NA	NA	NA	NA	NA	NA	NA	NA	NA	NA	NA	1194.5479961999226	['left', 'left', 'left', 'right', 'right', 'left']	[8.76089660008438, 10.937672100029886, 13.391959599917755, 15.224614700069651, 17.269986799918115, 18.951975799864158]	mfi	001	2026-02-20_14h35.22.933	SS	2023.1.0	60.04819469851661	NA
[(0, 0), (0, 2), (2, 0), (2, 0), (1, 0), (2, 1), (2, 0), (1, 1), (1, 0), (0, 1)]	NA	NA	NA	NA	NA	NA	NA	NA	NA	NA	NA	NA	NA	NA	NA	NA	NA	NA	NA	NA	NA	NA	NA	NA	NA	NA	NA	NA	NA	NA	NA	NA	0	0	0	0	0	2	2	640	NA	NA	NA	NA	NA	NA	NA	NA	NA	NA	NA	NA	NA	NA	NA	NA	NA	NA	NA	NA	NA	NA	NA	NA	NA	1215.557742799865	['left', 'left', 'right', 'left', 'right', 'right']	[8.963521800003946, 11.295775700127706, 13.615196000086144, 15.513481999980286, 17.464580199914053, 19.507721200119704]	mfi	001	2026-02-20_14h35.22.933	SS	2023.1.0	60.04819469851661	NA
[(0, 2), (2, 1), (1, 2), (1, 2), (0, 1), (2, 1), (2, 2), (0, 2), (0, 1), (2, 0)]	NA	NA	NA	NA	NA	NA	NA	NA	NA	NA	NA	NA	NA	NA	NA	NA	NA	NA	NA	NA	NA	NA	NA	NA	NA	NA	NA	NA	NA	NA	NA	NA	0	0	0	0	0	3	3	290	NA	NA	NA	NA	NA	NA	NA	NA	NA	NA	NA	NA	NA	NA	NA	NA	NA	NA	NA	NA	NA	NA	NA	NA	NA	1236.5417420999147	['left', 'right', 'left', 'left', 'right', 'left']	[8.635221099946648, 10.90890230005607, 12.979446300072595, 15.158689900068566, 17.02984629990533, 19.180061700055376]	mfi	001	2026-02-20_14h35.22.933	SS	2023.1.0	60.04819469851661	NA
[(0, 1), (0, 1), (0, 0), (1, 0), (2, 2), (1, 2), (1, 0), (2, 0), (2, 2), (1, 2)]	NA	NA	NA	NA	NA	NA	NA	NA	NA	NA	NA	NA	NA	NA	NA	NA	NA	NA	NA	NA	NA	NA	NA	NA	NA	NA	NA	NA	NA	NA	NA	NA	0	0	0	0	0	4	4	110	NA	NA	NA	NA	NA	NA	NA	NA	NA	NA	NA	NA	NA	NA	NA	NA	NA	NA	NA	NA	NA	NA	NA	NA	NA	1257.553120000055	['left', 'left', 'right', 'left', 'right', 'right']	[9.20032549998723, 11.001577600138262, 12.789644000120461, 14.733740500174463, 16.86191099998541, 18.980586000019684]	mfi	001	2026-02-20_14h35.22.933	SS	2023.1.0	60.04819469851661	NA
[(1, 2), (2, 2), (0, 1), (0, 2), (1, 0), (1, 2), (0, 1), (2, 0), (1, 0), (2, 2)]	NA	NA	NA	NA	NA	NA	NA	NA	NA	NA	NA	NA	NA	NA	NA	NA	NA	NA	NA	NA	NA	NA	NA	NA	NA	NA	NA	NA	NA	NA	NA	NA	0	0	0	0	0	5	5	48	NA	NA	NA	NA	NA	NA	NA	NA	NA	NA	NA	NA	NA	NA	NA	NA	NA	NA	NA	NA	NA	NA	NA	NA	NA	1278.548993599834	['left', 'left', 'right', 'left', 'right', 'left']	[9.16016500000842, 11.161533599952236, 13.298897600034252, 14.830035999882966, 17.245057799853384, 19.127380499849096]	mfi	001	2026-02-20_14h35.22.933	SS	2023.1.0	60.04819469851661	NA
NA	NA	NA	NA	NA	NA	NA	NA	NA	NA	NA	NA	NA	NA	NA	NA	NA	NA	NA	NA	NA	NA	NA	NA	NA	NA	NA	NA	NA	NA	NA	NA	NA	0	0	0	0	NA	NA	NA	NA	NA	NA	NA	NA	NA	NA	NA	NA	NA	NA	NA	NA	NA	NA	NA	NA	NA	NA	NA	NA	NA	NA	NA	NA	NA	NA	NA	NA	mfi	001	2026-02-20_14h35.22.933	SS	2023.1.0	60.04819469851661	NA
[(0, 2), (0, 0), (2, 0), (2, 0), (0, 2), (2, 1), (2, 0), (0, 1), (0, 0), (2, 1)]	NA	NA	NA	NA	NA	NA	NA	NA	NA	NA	NA	NA	NA	NA	NA	NA	NA	NA	NA	NA	NA	NA	NA	NA	NA	NA	NA	NA	NA	NA	NA	NA	1	0	1	0	0	0	0	496	NA	NA	NA	NA	NA	NA	NA	NA	NA	NA	NA	NA	NA	NA	NA	NA	NA	NA	NA	NA	NA	NA	NA	NA	NA	1301.5791426999494	['right', 'left', 'left', 'left', 'left', 'right']	[8.997945199953392, 10.677094899816439, 14.09072219999507, 15.030890499940142, 17.305767599958926, 18.69231989979744]	mfi	001	2026-02-20_14h35.22.933	SS	2023.1.0	60.04819469851661	NA
[(2, 2), (2, 2), (1, 1), (1, 0), (2, 2), (1, 1), (0, 0), (1, 0), (2, 1), (2, 1)]	NA	NA	NA	NA	NA	NA	NA	NA	NA	NA	NA	NA	NA	NA	NA	NA	NA	NA	NA	NA	NA	NA	NA	NA	NA	NA	NA	NA	NA	NA	NA	NA	1	0	1	0	0	1	1	638	NA	NA	NA	NA	NA	NA	NA	NA	NA	NA	NA	NA	NA	NA	NA	NA	NA	NA	NA	NA	NA	NA	NA	NA	NA	1322.5629710999783	['right', 'right', 'left', 'right', 'left', 'right']	[8.85397469997406, 11.564394399989396, 12.984153100056574, 15.276264199987054, 17.290532500017434, 18.90962990000844]	mfi	001	2026-02-20_14h35.22.933	SS	2023.1.0	60.04819469851661	NA
[(2, 1), (2, 0), (2, 2), (1, 1), (2, 1), (2, 0), (1, 0), (0, 2), (1, 2), (1, 0)]	NA	NA	NA	NA	NA	NA	NA	NA	NA	NA	NA	NA	NA	NA	NA	NA	NA	NA	NA	NA	NA	NA	NA	NA	NA	NA	NA	NA	NA	NA	NA	NA	1	0	1	0	0	2	2	3	NA	NA	NA	NA	NA	NA	NA	NA	NA	NA	NA	NA	NA	NA	NA	NA	NA	NA	NA	NA	NA	NA	NA	NA	NA	1343.5400054999627	['right', 'right', 'left', 'left', 'left', 'right']	[8.623637200100347, 10.804998100036755, 12.655945900129154, 15.017275799997151, 17.130255399970338, 18.966618899954483]	mfi	001	2026-02-20_14h35.22.933	SS	2023.1.0	60.04819469851661	NA
[(0, 1), (1, 0), (1, 1), (2, 2), (0, 1), (0, 2), (0, 2), (0, 1), (0, 1), (0, 2)]	NA	NA	NA	NA	NA	NA	NA	NA	NA	NA	NA	NA	NA	NA	NA	NA	NA	NA	NA	NA	NA	NA	NA	NA	NA	NA	NA	NA	NA	NA	NA	NA	1	0	1	0	0	3	3	60	NA	NA	NA	NA	NA	NA	NA	NA	NA	NA	NA	NA	NA	NA	NA	NA	NA	NA	NA	NA	NA	NA	NA	NA	NA	1364.5539392998908	['right', 'left', 'left', 'right', 'right', 'right']	[8.669535799883306, 10.667667499976233, 13.305073499912396, 15.064426699886099, 17.827598499832675, 19.411911099916324]	mfi	001	2026-02-20_14h35.22.933	SS	2023.1.0	60.04819469851661	NA
[(0, 0), (1, 2), (1, 0), (1, 0), (0, 0), (1, 2), (0, 2), (2, 2), (1, 0), (1, 1)]	NA	NA	NA	NA	NA	NA	NA	NA	NA	NA	NA	NA	NA	NA	NA	NA	NA	NA	NA	NA	NA	NA	NA	NA	NA	NA	NA	NA	NA	NA	NA	NA	1	0	1	0	0	4	4	65	NA	NA	NA	NA	NA	NA	NA	NA	NA	NA	NA	NA	NA	NA	NA	NA	NA	NA	NA	NA	NA	NA	NA	NA	NA	1385.5706708000507	['right', 'right', 'right', 'left', 'right', 'left']	[8.491834499873221, 10.844577299896628, 13.309661600040272, 14.863340599928051, 16.823448499897495, 19.187824900029227]	mfi	001	2026-02-20_14h35.22.933	SS	2023.1.0	60.04819469851661	NA
[(0, 0), (2, 1), (2, 0), (0, 1), (1, 1), (2, 1), (2, 0), (1, 1), (0, 0), (0, 2)]	NA	NA	NA	NA	NA	NA	NA	NA	NA	NA	NA	NA	NA	NA	NA	NA	NA	NA	NA	NA	NA	NA	NA	NA	NA	NA	NA	NA	NA	NA	NA	NA	1	0	1	0	0	5	5	9	NA	NA	NA	NA	NA	NA	NA	NA	NA	NA	NA	NA	NA	NA	NA	NA	NA	NA	NA	NA	NA	NA	NA	NA	NA	1406.5647141998634	['left', 'right', 'right', 'left', 'left', 'left']	[8.797480000182986, 11.212712500011548, 13.060844199964777, 15.266046000178903, 17.67887740000151, 19.000874700024724]	mfi	001	2026-02-20_14h35.22.933	SS	2023.1.0	60.04819469851661	NA
NA	NA	NA	NA	NA	NA	NA	NA	NA	NA	NA	NA	NA	NA	NA	NA	NA	NA	NA	NA	NA	NA	NA	NA	NA	NA	NA	NA	NA	NA	NA	NA	NA	1	0	1	0	NA	NA	NA	NA	NA	NA	NA	NA	NA	NA	NA	NA	NA	NA	NA	NA	NA	NA	NA	NA	NA	NA	NA	NA	NA	NA	NA	NA	NA	NA	NA	NA	mfi	001	2026-02-20_14h35.22.933	SS	2023.1.0	60.04819469851661	NA
