imagefile	stimfile	corrAns	MRdir	angle	training.thisRepN	training.thisTrialN	training.thisN	training.thisIndex	mentalrot_trials.thisRepN	mentalrot_trials.thisTrialN	mentalrot_trials.thisN	mentalrot_trials.thisIndex	blank.started	mr_answ_2.started	mr_answ_2.keys	mr_answ_2.corr	mr_answ_2.rt	blank.stopped	mr_answ.started	mr_answ.keys	mr_answ.corr	mr_answ.rt	byebye_text.started	byebye_text.stopped	participant	session	date	expName	psychopyVersion	frameRate
mr_images/6_b.png	mr_images/6_a_z_135.png	right	cw	135	0	0	0	164	NA	NA	NA	NA	101.48633049987257	101.98637309996413	left	0	4.207068100105971	NA	NA	NA	NA	NA	NA	NA	aaa	1	2026-06-08_14h23.21.224	MR	2023.1.0	60.00765706328852
mr_images/11_b.png	mr_images/11_a_z_45.png	right	cw	45	0	1	1	36	NA	NA	NA	NA	106.2690429999493	106.80683350004256	left	0	2.670728000346571	106.80683350004256	NA	NA	NA	NA	NA	NA	aaa	1	2026-06-08_14h23.21.224	MR	2023.1.0	60.00765706328852
mr_images/1_b.png	mr_images/1_b_z_270.png	left	ccw	90	0	2	2	19	NA	NA	NA	NA	109.50626560021192	110.08628940023482	left	1	3.3996619004756212	110.08628940023482	NA	NA	NA	NA	NA	NA	aaa	1	2026-06-08_14h23.21.224	MR	2023.1.0	60.00765706328852
mr_images/9_b.png	mr_images/9_a_z_270.png	right	ccw	90	0	3	3	210	NA	NA	NA	NA	113.51862059999256	114.08487679995596	left	0	2.057523500174284	114.08487679995596	NA	NA	NA	NA	NA	NA	aaa	1	2026-06-08_14h23.21.224	MR	2023.1.0	60.00765706328852
mr_images/3_a.png	mr_images/3_b_z_315.png	right	ccw	45	0	4	4	74	NA	NA	NA	NA	116.16773890005425	116.7510267002508	left	0	2.6818455001339316	116.7510267002508	NA	NA	NA	NA	NA	NA	aaa	1	2026-06-08_14h23.21.224	MR	2023.1.0	60.00765706328852
mr_images/6_a.png	mr_images/6_b_z_45.png	right	cw	45	NA	NA	NA	NA	0	0	0	144	124.56658270023765	NA	NA	NA	NA	359.1840694998391	359.1840694998391	right	1	1.90614740911406	NA	NA	aaa	1	2026-06-08_14h23.21.224	MR	2023.1.0	60.00765706328852
mr_images/6_b.png	mr_images/6_b_z_135.png	left	cw	135	NA	NA	NA	NA	0	1	1	165	129.082735999953	NA	NA	NA	NA	322.92534360010177	322.92534360010177	left	1	3.51264774857555	NA	NA	aaa	1	2026-06-08_14h23.21.224	MR	2023.1.0	60.00765706328852
mr_images/6_a.png	mr_images/6_b_z_135.png	right	cw	135	NA	NA	NA	NA	0	2	2	152	134.59857860021293	NA	NA	NA	NA	554.4077897001989	554.4077897001989	left	0	2.40559757745359	NA	NA	aaa	1	2026-06-08_14h23.21.224	MR	2023.1.0	60.00765706328852
mr_images/4_a.png	mr_images/4_a_z_45.png	left	cw	45	NA	NA	NA	NA	0	3	3	97	137.83142249984667	NA	NA	NA	NA	491.3545675999485	491.3545675999485	left	1	1.58881617255975	NA	NA	aaa	1	2026-06-08_14h23.21.224	MR	2023.1.0	60.00765706328852
mr_images/7_b.png	mr_images/7_b_z_45.png	left	cw	45	NA	NA	NA	NA	0	4	4	181	140.36440660012886	NA	NA	NA	NA	154.84576420020312	154.84576420020312	left	1	2.38772507791873	NA	NA	aaa	1	2026-06-08_14h23.21.224	MR	2023.1.0	60.00765706328852
mr_images/1_b.png	mr_images/1_b_z_45.png	left	cw	45	NA	NA	NA	NA	0	5	5	13	142.98076950013638	NA	NA	NA	NA	567.4717529001646	567.4717529001646	right	0	2.69406080141198	NA	NA	aaa	1	2026-06-08_14h23.21.224	MR	2023.1.0	60.00765706328852
mr_images/9_a.png	mr_images/9_b_z_315.png	right	ccw	45	NA	NA	NA	NA	0	6	6	194	146.54698330024257	NA	NA	NA	NA	523.2612868999131	523.2612868999131	left	0	1.97666597284842	NA	NA	aaa	1	2026-06-08_14h23.21.224	MR	2023.1.0	60.00765706328852
mr_images/9_a.png	mr_images/9_a_z_225.png	left	ccw	135	NA	NA	NA	NA	0	7	7	203	150.68385609984398	NA	NA	NA	NA	138.4146734001115	138.4146734001115	left	1	2.48155908205081	NA	NA	aaa	1	2026-06-08_14h23.21.224	MR	2023.1.0	60.00765706328852
mr_images/12_b.png	mr_images/12_a_z_225.png	right	ccw	135	NA	NA	NA	NA	0	8	8	70	154.27905280003324	NA	NA	NA	NA	384.54732540016994	384.54732540016994	left	0	2.96077343903016	NA	NA	aaa	1	2026-06-08_14h23.21.224	MR	2023.1.0	60.00765706328852
mr_images/7_b.png	mr_images/7_a_z_135.png	right	cw	135	NA	NA	NA	NA	0	9	9	188	156.96206980012357	NA	NA	NA	NA	496.7986373002641	496.7986373002641	left	0	2.55499313154724	NA	NA	aaa	1	2026-06-08_14h23.21.224	MR	2023.1.0	60.00765706328852
mr_images/5_b.png	mr_images/5_a_z_225.png	right	ccw	135	NA	NA	NA	NA	0	10	10	142	159.7450880999677	NA	NA	NA	NA	434.2084709000774	434.2084709000774	left	0	1.8394978538854	NA	NA	aaa	1	2026-06-08_14h23.21.224	MR	2023.1.0	60.00765706328852
mr_images/5_b.png	mr_images/5_a_z_135.png	right	cw	135	NA	NA	NA	NA	0	11	11	140	162.41139440005645	NA	NA	NA	NA	365.5331343999133	365.5331343999133	left	0	2.83590275014285	NA	NA	aaa	1	2026-06-08_14h23.21.224	MR	2023.1.0	60.00765706328852
mr_images/5_b.png	mr_images/5_a_z_270.png	right	ccw	90	NA	NA	NA	NA	0	12	12	138	164.9484991999343	NA	NA	NA	NA	349.7854152000509	349.7854152000509	left	0	2.22700099193025	NA	NA	aaa	1	2026-06-08_14h23.21.224	MR	2023.1.0	60.00765706328852
mr_images/5_b.png	mr_images/5_a_z_45.png	right	cw	45	NA	NA	NA	NA	0	13	13	132	168.6980387000367	NA	NA	NA	NA	290.1466033998877	290.1466033998877	left	0	2.05034852784593	NA	NA	aaa	1	2026-06-08_14h23.21.224	MR	2023.1.0	60.00765706328852
mr_images/5_a.png	mr_images/5_a_z_45.png	left	cw	45	NA	NA	NA	NA	0	14	14	121	172.3933414001949	NA	NA	NA	NA	196.3732702000998	196.3732702000998	left	1	2.66093541274313	NA	NA	aaa	1	2026-06-08_14h23.21.224	MR	2023.1.0	60.00765706328852
mr_images/5_a.png	mr_images/5_a_z_315.png	left	ccw	45	NA	NA	NA	NA	0	15	15	123	175.0932177999057	NA	NA	NA	NA	624.7639752998948	624.7639752998948	left	1	3.23566348163877	NA	NA	aaa	1	2026-06-08_14h23.21.224	MR	2023.1.0	60.00765706328852
mr_images/12_a.png	mr_images/12_a_z_225.png	left	ccw	135	NA	NA	NA	NA	0	16	16	59	178.46327980002388	NA	NA	NA	NA	556.6918195998296	556.6918195998296	left	1	1.2390696426155	NA	NA	aaa	1	2026-06-08_14h23.21.224	MR	2023.1.0	60.00765706328852
mr_images/7_a.png	mr_images/7_b_z_45.png	right	cw	45	NA	NA	NA	NA	0	17	17	168	180.87550240010023	NA	NA	NA	NA	517.6621520002373	517.6621520002373	right	1	1.99327675474342	NA	NA	aaa	1	2026-06-08_14h23.21.224	MR	2023.1.0	60.00765706328852
mr_images/4_b.png	mr_images/4_b_z_270.png	left	ccw	90	NA	NA	NA	NA	0	18	18	115	184.12489499989897	NA	NA	NA	NA	547.8577741999179	547.8577741999179	left	1	2.43273241759744	NA	NA	aaa	1	2026-06-08_14h23.21.224	MR	2023.1.0	60.00765706328852
mr_images/5_a.png	mr_images/5_b_z_315.png	right	ccw	45	NA	NA	NA	NA	0	19	19	122	187.5911836000159	NA	NA	NA	NA	617.7346898000687	617.7346898000687	left	0	1.24896628677379	NA	NA	aaa	1	2026-06-08_14h23.21.224	MR	2023.1.0	60.00765706328852
mr_images/5_b.png	mr_images/5_a_z_315.png	right	ccw	45	NA	NA	NA	NA	0	20	20	134	192.80709670018405	NA	NA	NA	NA	565.8722367002629	565.8722367002629	left	0	1.85746814345475	NA	NA	aaa	1	2026-06-08_14h23.21.224	MR	2023.1.0	60.00765706328852
mr_images/1_a.png	mr_images/1_b_z_45.png	right	cw	45	NA	NA	NA	NA	0	21	21	0	195.8233687002212	NA	NA	NA	NA	479.2176510002464	479.2176510002464	left	0	2.58728085027542	NA	NA	aaa	1	2026-06-08_14h23.21.224	MR	2023.1.0	60.00765706328852
mr_images/9_a.png	mr_images/9_a_z_315.png	left	ccw	45	NA	NA	NA	NA	0	22	22	195	198.55634339991957	NA	NA	NA	NA	305.7305712001398	305.7305712001398	left	1	2.29963966284413	NA	NA	aaa	1	2026-06-08_14h23.21.224	MR	2023.1.0	60.00765706328852
mr_images/11_a.png	mr_images/11_a_z_90.png	left	cw	90	NA	NA	NA	NA	0	23	23	29	202.20585419982672	NA	NA	NA	NA	492.88406870001927	492.88406870001927	right	0	2.40381948358845	NA	NA	aaa	1	2026-06-08_14h23.21.224	MR	2023.1.0	60.00765706328852
mr_images/11_a.png	mr_images/11_b_z_90.png	right	cw	90	NA	NA	NA	NA	0	24	24	28	205.00547510012984	NA	NA	NA	NA	495.0984037998133	495.0984037998133	right	1	1.85076339927036	NA	NA	aaa	1	2026-06-08_14h23.21.224	MR	2023.1.0	60.00765706328852
mr_images/7_a.png	mr_images/7_a_z_315.png	left	ccw	45	NA	NA	NA	NA	0	25	25	171	207.47182130021977	NA	NA	NA	NA	NA	462.3532802001573	right	0	1.63280400040094	NA	NA	aaa	1	2026-06-08_14h23.21.224	MR	2023.1.0	60.00765706328852
mr_images/1_b.png	mr_images/1_a_z_135.png	right	cw	135	NA	NA	NA	NA	0	26	26	20	210.8589055002667	NA	NA	NA	NA	590.0517279999331	590.0517279999331	left	0	2.56712401111145	NA	NA	aaa	1	2026-06-08_14h23.21.224	MR	2023.1.0	60.00765706328852
mr_images/11_a.png	mr_images/11_b_z_225.png	right	ccw	135	NA	NA	NA	NA	0	27	27	34	213.6084640999325	NA	NA	NA	NA	340.35410219989717	340.35410219989717	right	1	2.31523748289328	NA	NA	aaa	1	2026-06-08_14h23.21.224	MR	2023.1.0	60.00765706328852
mr_images/9_b.png	mr_images/9_b_z_270.png	left	ccw	90	NA	NA	NA	NA	0	28	28	211	216.8704119999893	NA	NA	NA	NA	580.8699301998131	580.8699301998131	left	1	3.18754258879926	NA	NA	aaa	1	2026-06-08_14h23.21.224	MR	2023.1.0	60.00765706328852
mr_images/11_a.png	mr_images/11_a_z_315.png	left	ccw	45	NA	NA	NA	NA	0	29	29	27	219.85626959986985	NA	NA	NA	NA	292.3104326999746	292.3104326999746	right	0	2.18971716833767	NA	NA	aaa	1	2026-06-08_14h23.21.224	MR	2023.1.0	60.00765706328852
mr_images/7_a.png	mr_images/7_a_z_45.png	left	cw	45	NA	NA	NA	NA	0	30	30	169	222.23635700019076	NA	NA	NA	NA	460.6895037000067	460.6895037000067	left	1	1.14019200752955	NA	NA	aaa	1	2026-06-08_14h23.21.224	MR	2023.1.0	60.00765706328852
mr_images/1_b.png	mr_images/1_b_z_270.png	left	ccw	90	NA	NA	NA	NA	0	31	31	19	224.61941489996389	NA	NA	NA	NA	303.17507820017636	303.17507820017636	left	1	2.35659218148794	NA	NA	aaa	1	2026-06-08_14h23.21.224	MR	2023.1.0	60.00765706328852
mr_images/9_b.png	mr_images/9_a_z_315.png	right	ccw	45	NA	NA	NA	NA	0	32	32	206	226.60246540000665	NA	NA	NA	NA	619.1814239001833	619.1814239001833	left	0	0.827705012750812	NA	NA	aaa	1	2026-06-08_14h23.21.224	MR	2023.1.0	60.00765706328852
mr_images/6_a.png	mr_images/6_a_z_135.png	left	cw	135	NA	NA	NA	NA	0	33	33	153	228.90214389981705	NA	NA	NA	NA	397.11187390005216	397.11187390005216	left	1	1.98673236451577	NA	NA	aaa	1	2026-06-08_14h23.21.224	MR	2023.1.0	60.00765706328852
mr_images/1_a.png	mr_images/1_b_z_225.png	right	ccw	135	NA	NA	NA	NA	0	34	34	10	232.2183209001087	NA	NA	NA	NA	469.33534620003775	469.33534620003775	left	0	2.83253291121218	NA	NA	aaa	1	2026-06-08_14h23.21.224	MR	2023.1.0	60.00765706328852
mr_images/4_b.png	mr_images/4_a_z_270.png	right	ccw	90	NA	NA	NA	NA	0	35	35	114	234.02237639995292	NA	NA	NA	NA	372.3322029002011	372.3322029002011	left	0	2.74566987517756	NA	NA	aaa	1	2026-06-08_14h23.21.224	MR	2023.1.0	60.00765706328852
mr_images/3_b.png	mr_images/3_a_z_45.png	right	cw	45	NA	NA	NA	NA	0	36	36	84	236.16780050005764	NA	NA	NA	NA	628.2299394002184	628.2299394002184	left	0	3.26649124419782	NA	NA	aaa	1	2026-06-08_14h23.21.224	MR	2023.1.0	60.00765706328852
mr_images/11_b.png	mr_images/11_a_z_270.png	right	ccw	90	NA	NA	NA	NA	0	37	37	42	238.41746099991724	NA	NA	NA	NA	NA	135.1484575001523	left	0	2.66240453196224	NA	NA	aaa	1	2026-06-08_14h23.21.224	MR	2023.1.0	60.00765706328852
mr_images/11_b.png	mr_images/11_b_z_225.png	left	ccw	135	NA	NA	NA	NA	0	38	38	47	242.40030620014295	NA	NA	NA	NA	405.9441261999309	405.9441261999309	left	1	1.51764149742667	NA	NA	aaa	1	2026-06-08_14h23.21.224	MR	2023.1.0	60.00765706328852
mr_images/4_b.png	mr_images/4_b_z_315.png	left	ccw	45	NA	NA	NA	NA	0	39	39	111	244.5499557000585	NA	NA	NA	NA	447.32175339991227	447.32175339991227	left	1	1.14353631448466	NA	NA	aaa	1	2026-06-08_14h23.21.224	MR	2023.1.0	60.00765706328852
mr_images/5_b.png	mr_images/5_b_z_90.png	left	cw	90	NA	NA	NA	NA	0	40	40	137	248.3493657000363	NA	NA	NA	NA	169.26019630022347	169.26019630022347	left	1	3.90799741970841	NA	NA	aaa	1	2026-06-08_14h23.21.224	MR	2023.1.0	60.00765706328852
mr_images/11_a.png	mr_images/11_b_z_315.png	right	ccw	45	NA	NA	NA	NA	0	41	41	26	251.03245129995048	NA	NA	NA	NA	450.6546263000928	450.6546263000928	left	0	1.43883100606035	NA	NA	aaa	1	2026-06-08_14h23.21.224	MR	2023.1.0	60.00765706328852
mr_images/11_a.png	mr_images/11_b_z_45.png	right	cw	45	NA	NA	NA	NA	0	42	42	24	252.765526200179	NA	NA	NA	NA	639.2118810000829	639.2118810000829	left	0	3.31507547746878	NA	NA	aaa	1	2026-06-08_14h23.21.224	MR	2023.1.0	60.00765706328852
mr_images/11_b.png	mr_images/11_a_z_90.png	right	cw	90	NA	NA	NA	NA	0	43	43	40	254.29860820015892	NA	NA	NA	NA	413.1312549998984	413.1312549998984	left	0	2.38946329837199	NA	NA	aaa	1	2026-06-08_14h23.21.224	MR	2023.1.0	60.00765706328852
mr_images/12_a.png	mr_images/12_a_z_90.png	left	cw	90	NA	NA	NA	NA	0	44	44	53	256.28166980016977	NA	NA	NA	NA	390.4631846002303	390.4631846002303	left	1	3.81631550693419	NA	NA	aaa	1	2026-06-08_14h23.21.224	MR	2023.1.0	60.00765706328852
mr_images/6_b.png	mr_images/6_b_z_315.png	left	ccw	45	NA	NA	NA	NA	0	45	45	159	257.8979185000062	NA	NA	NA	NA	511.7295765001327	511.7295765001327	left	1	1.80342306417879	NA	NA	aaa	1	2026-06-08_14h23.21.224	MR	2023.1.0	60.00765706328852
mr_images/9_b.png	mr_images/9_b_z_45.png	left	cw	45	NA	NA	NA	NA	0	46	46	205	259.71867119986564	NA	NA	NA	NA	258.43302270025015	258.43302270025015	left	1	1.56865850707982	NA	NA	aaa	1	2026-06-08_14h23.21.224	MR	2023.1.0	60.00765706328852
mr_images/9_a.png	mr_images/9_a_z_270.png	left	ccw	90	NA	NA	NA	NA	0	47	47	199	261.8184434999712	NA	NA	NA	NA	140.88081859983504	140.88081859983504	left	1	2.63562865590211	NA	NA	aaa	1	2026-06-08_14h23.21.224	MR	2023.1.0	60.00765706328852
mr_images/7_b.png	mr_images/7_b_z_315.png	left	ccw	45	NA	NA	NA	NA	0	48	48	183	264.2015094999224	NA	NA	NA	NA	326.03860309999436	326.03860309999436	left	1	1.85236140724737	NA	NA	aaa	1	2026-06-08_14h23.21.224	MR	2023.1.0	60.00765706328852
mr_images/6_b.png	mr_images/6_a_z_225.png	right	ccw	135	NA	NA	NA	NA	0	49	49	166	265.94698530016467	NA	NA	NA	NA	456.82045240001753	456.82045240001753	left	0	4.13620074524079	NA	NA	aaa	1	2026-06-08_14h23.21.224	MR	2023.1.0	60.00765706328852
mr_images/11_b.png	mr_images/11_a_z_135.png	right	cw	135	NA	NA	NA	NA	0	50	50	44	269.5631703999825	NA	NA	NA	NA	181.42522440012544	181.42522440012544	left	0	3.01933351776097	NA	NA	aaa	1	2026-06-08_14h23.21.224	MR	2023.1.0	60.00765706328852
mr_images/11_b.png	mr_images/11_b_z_270.png	left	ccw	90	NA	NA	NA	NA	0	51	51	43	271.2797130001709	NA	NA	NA	NA	375.0151821002364	375.0151821002364	left	1	3.11482605582569	NA	NA	aaa	1	2026-06-08_14h23.21.224	MR	2023.1.0	60.00765706328852
mr_images/3_b.png	mr_images/3_b_z_270.png	left	ccw	90	NA	NA	NA	NA	0	52	52	91	273.17926120013	NA	NA	NA	NA	598.8174240002409	598.8174240002409	right	0	2.40648627548944	NA	NA	aaa	1	2026-06-08_14h23.21.224	MR	2023.1.0	60.00765706328852
mr_images/1_a.png	mr_images/1_a_z_225.png	left	ccw	135	NA	NA	NA	NA	0	53	53	11	275.52898810012266	NA	NA	NA	NA	238.9506931002252	238.9506931002252	right	0	3.57737594482023	NA	NA	aaa	1	2026-06-08_14h23.21.224	MR	2023.1.0	60.00765706328852
mr_images/9_b.png	mr_images/9_b_z_225.png	left	ccw	135	NA	NA	NA	NA	0	54	54	215	278.2452830001712	NA	NA	NA	NA	NA	527.593904600013	left	1	2.69609319057781	NA	NA	aaa	1	2026-06-08_14h23.21.224	MR	2023.1.0	60.00765706328852
mr_images/4_a.png	mr_images/4_b_z_135.png	right	cw	135	NA	NA	NA	NA	0	55	55	104	281.21575149986893	NA	NA	NA	NA	421.97555459989235	421.97555459989235	left	0	2.19995103648398	NA	NA	aaa	1	2026-06-08_14h23.21.224	MR	2023.1.0	60.00765706328852
mr_images/7_b.png	mr_images/7_a_z_270.png	right	ccw	90	NA	NA	NA	NA	0	56	56	186	283.7820680998266	NA	NA	NA	NA	577.5871068001725	577.5871068001725	left	0	1.19714691408444	NA	NA	aaa	1	2026-06-08_14h23.21.224	MR	2023.1.0	60.00765706328852
mr_images/12_b.png	mr_images/12_a_z_90.png	right	cw	90	NA	NA	NA	NA	0	57	57	64	286.44455950008705	NA	NA	NA	NA	448.938164900057	448.938164900057	left	0	1.3662633447675	NA	NA	aaa	1	2026-06-08_14h23.21.224	MR	2023.1.0	60.00765706328852
mr_images/6_b.png	mr_images/6_a_z_90.png	right	cw	90	NA	NA	NA	NA	0	58	58	160	289.61459079990163	NA	NA	NA	NA	278.7971314000897	278.7971314000897	left	0	2.4438213222893	NA	NA	aaa	1	2026-06-08_14h23.21.224	MR	2023.1.0	60.00765706328852
mr_images/11_b.png	mr_images/11_a_z_225.png	right	ccw	135	NA	NA	NA	NA	0	59	59	46	291.78094260022044	NA	NA	NA	NA	202.7596169002354	202.7596169002354	right	1	2.88308648124803	NA	NA	aaa	1	2026-06-08_14h23.21.224	MR	2023.1.0	60.00765706328852
mr_images/4_a.png	mr_images/4_b_z_270.png	right	ccw	90	NA	NA	NA	NA	0	60	60	102	293.5767999999225	NA	NA	NA	NA	266.49660240020603	266.49660240020603	left	0	3.95549945544917	NA	NA	aaa	1	2026-06-08_14h23.21.224	MR	2023.1.0	60.00765706328852
mr_images/1_b.png	mr_images/1_b_z_135.png	left	cw	135	NA	NA	NA	NA	0	61	61	21	295.95951800001785	NA	NA	NA	NA	205.5386954001151	205.5386954001151	right	0	2.49502562556881	NA	NA	aaa	1	2026-06-08_14h23.21.224	MR	2023.1.0	60.00765706328852
mr_images/5_a.png	mr_images/5_b_z_90.png	right	cw	90	NA	NA	NA	NA	0	62	62	124	297.9758485001512	NA	NA	NA	NA	485.2997667002492	485.2997667002492	left	0	1.8984283398604	NA	NA	aaa	1	2026-06-08_14h23.21.224	MR	2023.1.0	60.00765706328852
mr_images/9_a.png	mr_images/9_b_z_270.png	right	ccw	90	NA	NA	NA	NA	0	63	63	198	300.0088557000272	NA	NA	NA	NA	273.7289081001654	273.7289081001654	left	0	2.50497593067121	NA	NA	aaa	1	2026-06-08_14h23.21.224	MR	2023.1.0	60.00765706328852
mr_images/12_b.png	mr_images/12_b_z_225.png	left	ccw	135	NA	NA	NA	NA	0	64	64	71	302.6460766000673	NA	NA	NA	NA	399.2784569002688	399.2784569002688	left	1	1.69424933253322	NA	NA	aaa	1	2026-06-08_14h23.21.224	MR	2023.1.0	60.00765706328852
mr_images/7_b.png	mr_images/7_b_z_135.png	left	cw	135	NA	NA	NA	NA	0	65	65	189	305.1914081000723	NA	NA	NA	NA	561.3726558000781	561.3726558000781	left	1	2.19880012411159	NA	NA	aaa	1	2026-06-08_14h23.21.224	MR	2023.1.0	60.00765706328852
mr_images/9_a.png	mr_images/9_a_z_90.png	left	cw	90	NA	NA	NA	NA	0	66	66	197	307.34548150002956	NA	NA	NA	NA	649.7161000999622	649.7161000999622	left	1	2.67998385045212	NA	NA	aaa	1	2026-06-08_14h23.21.224	MR	2023.1.0	60.00765706328852
mr_images/1_b.png	mr_images/1_b_z_315.png	left	ccw	45	NA	NA	NA	NA	0	67	67	15	309.4576820000075	NA	NA	NA	NA	418.9983888999559	418.9983888999559	left	1	3.24636381433811	NA	NA	aaa	1	2026-06-08_14h23.21.224	MR	2023.1.0	60.00765706328852
mr_images/7_b.png	mr_images/7_a_z_225.png	right	ccw	135	NA	NA	NA	NA	0	68	68	190	311.7906386000104	NA	NA	NA	NA	487.0723319002427	487.0723319002427	left	0	1.39866904832888	NA	NA	aaa	1	2026-06-08_14h23.21.224	MR	2023.1.0	60.00765706328852
mr_images/6_a.png	mr_images/6_b_z_225.png	right	ccw	135	NA	NA	NA	NA	0	69	69	154	313.84043039986864	NA	NA	NA	NA	175.67985770013183	175.67985770013183	left	0	3.29195763927419	NA	NA	aaa	1	2026-06-08_14h23.21.224	MR	2023.1.0	60.00765706328852
mr_images/3_a.png	mr_images/3_b_z_45.png	right	cw	45	NA	NA	NA	NA	0	70	70	72	315.67347180005163	NA	NA	NA	NA	342.6696097999811	342.6696097999811	left	0	3.48195443639997	NA	NA	aaa	1	2026-06-08_14h23.21.224	MR	2023.1.0	60.00765706328852
mr_images/7_a.png	mr_images/7_b_z_135.png	right	cw	135	NA	NA	NA	NA	0	71	71	176	317.627379800193	NA	NA	NA	NA	623.0353041999042	623.0353041999042	left	0	1.18611598561984	NA	NA	aaa	1	2026-06-08_14h23.21.224	MR	2023.1.0	60.00765706328852
mr_images/7_a.png	mr_images/7_a_z_225.png	left	ccw	135	NA	NA	NA	NA	0	72	72	179	320.4061893001199	NA	NA	NA	NA	515.8788799000904	515.8788799000904	left	1	1.56014274584595	NA	NA	aaa	1	2026-06-08_14h23.21.224	MR	2023.1.0	60.00765706328852
mr_images/6_b.png	mr_images/6_a_z_270.png	right	ccw	90	NA	NA	NA	NA	0	73	73	162	322.39335000002757	NA	NA	NA	NA	222.78627520008013	222.78627520008013	left	0	2.7603742465144	NA	NA	aaa	1	2026-06-08_14h23.21.224	MR	2023.1.0	60.00765706328852
mr_images/9_a.png	mr_images/9_b_z_225.png	right	ccw	135	NA	NA	NA	NA	0	74	74	202	325.47630270011723	NA	NA	NA	NA	172.94328649993986	172.94328649993986	left	0	2.83120723173488	NA	NA	aaa	1	2026-06-08_14h23.21.224	MR	2023.1.0	60.00765706328852
mr_images/7_b.png	mr_images/7_a_z_315.png	right	ccw	45	NA	NA	NA	NA	0	75	75	182	327.47176809981465	NA	NA	NA	NA	378.09841099986807	378.09841099986807	left	0	3.29747708688956	NA	NA	aaa	1	2026-06-08_14h23.21.224	MR	2023.1.0	60.00765706328852
mr_images/4_b.png	mr_images/4_a_z_225.png	right	ccw	135	NA	NA	NA	NA	0	76	76	118	330.6046624002047	NA	NA	NA	NA	415.8260482000187	415.8260482000187	left	0	3.24561570945662	NA	NA	aaa	1	2026-06-08_14h23.21.224	MR	2023.1.0	60.00765706328852
mr_images/6_b.png	mr_images/6_a_z_45.png	right	cw	45	NA	NA	NA	NA	0	77	77	156	332.45863289991394	NA	NA	NA	NA	612.7488032998517	612.7488032998517	left	0	2.38285425363574	NA	NA	aaa	1	2026-06-08_14h23.21.224	MR	2023.1.0	60.00765706328852
mr_images/4_b.png	mr_images/4_a_z_315.png	right	ccw	45	NA	NA	NA	NA	0	78	78	110	334.9875087002292	NA	NA	NA	NA	467.88697759993374	467.88697759993374	left	0	1.53129781980533	NA	NA	aaa	1	2026-06-08_14h23.21.224	MR	2023.1.0	60.00765706328852
mr_images/1_b.png	mr_images/1_b_z_225.png	left	ccw	135	NA	NA	NA	NA	0	79	79	23	337.57040840014815	NA	NA	NA	NA	402.8340587001294	402.8340587001294	right	0	2.74014779471327	NA	NA	aaa	1	2026-06-08_14h23.21.224	MR	2023.1.0	60.00765706328852
mr_images/4_a.png	mr_images/4_a_z_270.png	left	ccw	90	NA	NA	NA	NA	0	80	80	103	339.80757860001177	NA	NA	NA	NA	318.1894344999455	318.1894344999455	left	1	2.7525626445422	NA	NA	aaa	1	2026-06-08_14h23.21.224	MR	2023.1.0	60.00765706328852
mr_images/3_a.png	mr_images/3_a_z_270.png	left	ccw	90	NA	NA	NA	NA	0	81	81	79	342.10308430017903	NA	NA	NA	NA	426.50820210017264	426.50820210017264	left	1	2.92563147877809	NA	NA	aaa	1	2026-06-08_14h23.21.224	MR	2023.1.0	60.00765706328852
mr_images/3_b.png	mr_images/3_b_z_315.png	left	ccw	45	NA	NA	NA	NA	0	82	82	87	345.2859408999793	NA	NA	NA	NA	540.60880669998	540.60880669998	left	1	1.6227266775677	NA	NA	aaa	1	2026-06-08_14h23.21.224	MR	2023.1.0	60.00765706328852
mr_images/11_b.png	mr_images/11_b_z_90.png	left	cw	90	NA	NA	NA	NA	0	83	83	41	347.16904899990186	NA	NA	NA	NA	601.2172782002017	601.2172782002017	left	1	3.49732463841792	NA	NA	aaa	1	2026-06-08_14h23.21.224	MR	2023.1.0	60.00765706328852
mr_images/12_a.png	mr_images/12_a_z_270.png	left	ccw	90	NA	NA	NA	NA	0	84	84	55	349.2521370998584	NA	NA	NA	NA	381.5475543998182	381.5475543998182	left	1	2.76183506019879	NA	NA	aaa	1	2026-06-08_14h23.21.224	MR	2023.1.0	60.00765706328852
mr_images/3_a.png	mr_images/3_a_z_315.png	left	ccw	45	NA	NA	NA	NA	0	85	85	75	351.3017648002133	NA	NA	NA	NA	592.9349170001224	592.9349170001224	right	0	3.10370000137482	NA	NA	aaa	1	2026-06-08_14h23.21.224	MR	2023.1.0	60.00765706328852
mr_images/7_b.png	mr_images/7_b_z_225.png	left	ccw	135	NA	NA	NA	NA	0	86	86	191	354.08483960013837	NA	NA	NA	NA	188.1577818002552	188.1577818002552	right	0	4.65288626018446	NA	NA	aaa	1	2026-06-08_14h23.21.224	MR	2023.1.0	60.00765706328852
mr_images/7_b.png	mr_images/7_b_z_270.png	left	ccw	90	NA	NA	NA	NA	0	87	87	187	355.6345561002381	NA	NA	NA	NA	248.9160123001784	248.9160123001784	left	1	2.93926228641067	NA	NA	aaa	1	2026-06-08_14h23.21.224	MR	2023.1.0	60.00765706328852
mr_images/11_b.png	mr_images/11_a_z_45.png	right	cw	45	NA	NA	NA	NA	0	88	88	36	358.6508450000547	NA	NA	NA	NA	217.40377089986575	217.40377089986575	left	0	3.26825969351921	NA	NA	aaa	1	2026-06-08_14h23.21.224	MR	2023.1.0	60.00765706328852
mr_images/7_a.png	mr_images/7_b_z_90.png	right	cw	90	NA	NA	NA	NA	0	89	89	172	360.73385100020096	NA	NA	NA	NA	542.4251568000764	542.4251568000764	left	0	1.72909693641122	NA	NA	aaa	1	2026-06-08_14h23.21.224	MR	2023.1.0	60.00765706328852
mr_images/4_a.png	mr_images/4_b_z_225.png	right	ccw	135	NA	NA	NA	NA	0	90	90	106	362.6668346002698	NA	NA	NA	NA	151.22965170023963	151.22965170023963	right	1	3.3561681288993	NA	NA	aaa	1	2026-06-08_14h23.21.224	MR	2023.1.0	60.00765706328852
mr_images/9_b.png	mr_images/9_b_z_90.png	left	cw	90	NA	NA	NA	NA	0	91	91	209	364.966697699856	NA	NA	NA	NA	160.29546689987183	160.29546689987183	left	1	2.74155439122114	NA	NA	aaa	1	2026-06-08_14h23.21.224	MR	2023.1.0	60.00765706328852
mr_images/5_a.png	mr_images/5_b_z_270.png	right	ccw	90	NA	NA	NA	NA	0	92	92	126	368.0662169000134	NA	NA	NA	NA	262.369301199913	262.369301199913	left	0	2.39827285951469	NA	NA	aaa	1	2026-06-08_14h23.21.224	MR	2023.1.0	60.00765706328852
mr_images/9_b.png	mr_images/9_a_z_135.png	right	cw	135	NA	NA	NA	NA	0	93	93	212	371.79909530002624	NA	NA	NA	NA	294.1432431000285	294.1432431000285	left	0	2.5941606661072	NA	NA	aaa	1	2026-06-08_14h23.21.224	MR	2023.1.0	60.00765706328852
mr_images/3_a.png	mr_images/3_b_z_315.png	right	ccw	45	NA	NA	NA	NA	0	94	94	74	374.4486060999334	NA	NA	NA	NA	575.8373221000656	575.8373221000656	left	0	1.41077299660537	NA	NA	aaa	1	2026-06-08_14h23.21.224	MR	2023.1.0	60.00765706328852
mr_images/3_a.png	mr_images/3_a_z_135.png	left	cw	135	NA	NA	NA	NA	0	95	95	81	377.5482605998404	NA	NA	NA	NA	466.61910809995607	466.61910809995607	left	1	1.5996652104659	NA	NA	aaa	1	2026-06-08_14h23.21.224	MR	2023.1.0	60.00765706328852
mr_images/6_a.png	mr_images/6_a_z_225.png	left	ccw	135	NA	NA	NA	NA	0	96	96	155	381.01433379994705	NA	NA	NA	NA	245.1008128998801	245.1008128998801	left	1	3.34811600588728	NA	NA	aaa	1	2026-06-08_14h23.21.224	MR	2023.1.0	60.00765706328852
mr_images/4_b.png	mr_images/4_b_z_90.png	left	cw	90	NA	NA	NA	NA	0	97	97	113	383.9805677998811	NA	NA	NA	NA	464.11948479991406	464.11948479991406	left	1	2.2359968124656	NA	NA	aaa	1	2026-06-08_14h23.21.224	MR	2023.1.0	60.00765706328852
mr_images/12_a.png	mr_images/12_a_z_45.png	left	cw	45	NA	NA	NA	NA	0	98	98	49	387.4634858001955	NA	NA	NA	NA	549.9575649998151	549.9575649998151	left	1	2.16883586428594	NA	NA	aaa	1	2026-06-08_14h23.21.224	MR	2023.1.0	60.00765706328852
mr_images/1_a.png	mr_images/1_a_z_90.png	left	cw	90	NA	NA	NA	NA	0	99	99	5	389.9130547000095	NA	NA	NA	NA	551.7238694000989	551.7238694000989	left	1	2.80910020542797	NA	NA	aaa	1	2026-06-08_14h23.21.224	MR	2023.1.0	60.00765706328852
mr_images/7_a.png	mr_images/7_b_z_225.png	right	ccw	135	NA	NA	NA	NA	0	100	100	178	393.9459446002729	NA	NA	NA	NA	620.4477647999302	620.4477647999302	left	0	2.3070532992715	NA	NA	aaa	1	2026-06-08_14h23.21.224	MR	2023.1.0	60.00765706328852
mr_images/6_a.png	mr_images/6_a_z_90.png	left	cw	90	NA	NA	NA	NA	0	101	101	149	396.5788064999506	NA	NA	NA	NA	436.2897618999705	436.2897618999705	left	1	1.53474457550328	NA	NA	aaa	1	2026-06-08_14h23.21.224	MR	2023.1.0	60.00765706328852
mr_images/9_b.png	mr_images/9_a_z_270.png	right	ccw	90	NA	NA	NA	NA	0	102	102	210	398.7451192000881	NA	NA	NA	NA	296.49244579998776	296.49244579998776	left	0	2.26491525175516	NA	NA	aaa	1	2026-06-08_14h23.21.224	MR	2023.1.0	60.00765706328852
mr_images/12_a.png	mr_images/12_b_z_270.png	right	ccw	90	NA	NA	NA	NA	0	103	103	54	400.6449231998995	NA	NA	NA	NA	347.7356901001185	347.7356901001185	left	0	1.89650277246255	NA	NA	aaa	1	2026-06-08_14h23.21.224	MR	2023.1.0	60.00765706328852
mr_images/12_a.png	mr_images/12_b_z_315.png	right	ccw	45	NA	NA	NA	NA	0	104	104	50	402.2779919002205	NA	NA	NA	NA	232.77497110003603	232.77497110003603	left	0	1.46972784574609	NA	NA	aaa	1	2026-06-08_14h23.21.224	MR	2023.1.0	60.00765706328852
mr_images/7_b.png	mr_images/7_b_z_90.png	left	cw	90	NA	NA	NA	NA	0	105	105	185	405.4159813001752	NA	NA	NA	NA	642.2780559002422	642.2780559002422	right	0	2.32131378434133	NA	NA	aaa	1	2026-06-08_14h23.21.224	MR	2023.1.0	60.00765706328852
mr_images/9_a.png	mr_images/9_b_z_90.png	right	cw	90	NA	NA	NA	NA	0	106	106	196	407.1609684000723	NA	NA	NA	NA	634.7958049001172	634.7958049001172	left	0	4.54707801679615	NA	NA	aaa	1	2026-06-08_14h23.21.224	MR	2023.1.0	60.00765706328852
mr_images/5_a.png	mr_images/5_a_z_135.png	left	cw	135	NA	NA	NA	NA	0	107	107	129	409.66030099987984	NA	NA	NA	NA	536.7595794000663	536.7595794000663	left	1	1.93494576972444	NA	NA	aaa	1	2026-06-08_14h23.21.224	MR	2023.1.0	60.00765706328852
mr_images/5_a.png	mr_images/5_b_z_225.png	right	ccw	135	NA	NA	NA	NA	0	108	108	130	412.59334099991247	NA	NA	NA	NA	424.64169530011714	424.64169530011714	left	0	2.24288222577889	NA	NA	aaa	1	2026-06-08_14h23.21.224	MR	2023.1.0	60.00765706328852
mr_images/3_b.png	mr_images/3_a_z_225.png	right	ccw	135	NA	NA	NA	NA	0	109	109	94	415.2638874999247	NA	NA	NA	NA	236.71779779996723	236.71779779996723	right	1	2.37191736104433	NA	NA	aaa	1	2026-06-08_14h23.21.224	MR	2023.1.0	60.00765706328852
mr_images/11_a.png	mr_images/11_a_z_135.png	left	cw	135	NA	NA	NA	NA	0	110	110	33	418.475787000265	NA	NA	NA	NA	631.2798762000166	631.2798762000166	left	1	3.28736996965017	NA	NA	aaa	1	2026-06-08_14h23.21.224	MR	2023.1.0	60.00765706328852
mr_images/3_b.png	mr_images/3_b_z_45.png	left	cw	45	NA	NA	NA	NA	0	111	111	85	421.4295983002521	NA	NA	NA	NA	558.0254871002398	558.0254871002398	right	0	3.19674405513797	NA	NA	aaa	1	2026-06-08_14h23.21.224	MR	2023.1.0	60.00765706328852
mr_images/12_b.png	mr_images/12_a_z_270.png	right	ccw	90	NA	NA	NA	NA	0	112	112	66	424.10813480010256	NA	NA	NA	NA	314.3902194998227	314.3902194998227	left	0	1.37202834209893	NA	NA	aaa	1	2026-06-08_14h23.21.224	MR	2023.1.0	60.00765706328852
mr_images/9_b.png	mr_images/9_a_z_225.png	right	ccw	135	NA	NA	NA	NA	0	113	113	214	425.9581446000375	NA	NA	NA	NA	454.4874372999184	454.4874372999184	left	0	1.82223508006427	NA	NA	aaa	1	2026-06-08_14h23.21.224	MR	2023.1.0	60.00765706328852
mr_images/4_a.png	mr_images/4_a_z_225.png	left	ccw	135	NA	NA	NA	NA	0	114	114	107	429.1244296999648	NA	NA	NA	NA	513.3459920999594	513.3459920999594	right	0	2.58569019066636	NA	NA	aaa	1	2026-06-08_14h23.21.224	MR	2023.1.0	60.00765706328852
mr_images/11_a.png	mr_images/11_b_z_135.png	right	cw	135	NA	NA	NA	NA	0	115	115	32	431.5906210001558	NA	NA	NA	NA	208.04336610017344	208.04336610017344	left	0	3.00583616795484	NA	NA	aaa	1	2026-06-08_14h23.21.224	MR	2023.1.0	60.00765706328852
mr_images/6_a.png	mr_images/6_a_z_315.png	left	ccw	45	NA	NA	NA	NA	0	116	116	147	433.694609799888	NA	NA	NA	NA	394.5130011998117	394.5130011998117	left	1	2.37068143545184	NA	NA	aaa	1	2026-06-08_14h23.21.224	MR	2023.1.0	60.00765706328852
mr_images/12_a.png	mr_images/12_a_z_135.png	left	cw	135	NA	NA	NA	NA	0	117	117	57	435.7567455000244	NA	NA	NA	NA	162.9987113000825	162.9987113000825	left	1	2.07874257059302	NA	NA	aaa	1	2026-06-08_14h23.21.224	MR	2023.1.0	60.00765706328852
mr_images/3_a.png	mr_images/3_a_z_225.png	left	ccw	135	NA	NA	NA	NA	0	118	118	83	437.48996490007266	NA	NA	NA	NA	407.6939131999388	407.6939131999388	right	0	2.32479981763754	NA	NA	aaa	1	2026-06-08_14h23.21.224	MR	2023.1.0	60.00765706328852
mr_images/7_b.png	mr_images/7_a_z_90.png	right	cw	90	NA	NA	NA	NA	0	119	119	184	441.2062854999676	NA	NA	NA	NA	584.0232327999547	584.0232327999547	right	1	3.57718506583478	NA	NA	aaa	1	2026-06-08_14h23.21.224	MR	2023.1.0	60.00765706328852
mr_images/4_a.png	mr_images/4_b_z_315.png	right	ccw	45	NA	NA	NA	NA	0	120	120	98	444.75554550020024	NA	NA	NA	NA	587.269000899978	587.269000899978	left	0	1.18070523871575	NA	NA	aaa	1	2026-06-08_14h23.21.224	MR	2023.1.0	60.00765706328852
mr_images/1_a.png	mr_images/1_b_z_315.png	right	ccw	45	NA	NA	NA	NA	0	121	121	2	446.7552537000738	NA	NA	NA	NA	298.5257093999535	298.5257093999535	left	0	2.10618248919491	NA	NA	aaa	1	2026-06-08_14h23.21.224	MR	2023.1.0	60.00765706328852
mr_images/3_b.png	mr_images/3_b_z_135.png	left	cw	135	NA	NA	NA	NA	0	122	122	93	448.40491490019485	NA	NA	NA	NA	644.3445565002039	644.3445565002039	left	1	2.1027585916454	NA	NA	aaa	1	2026-06-08_14h23.21.224	MR	2023.1.0	60.00765706328852
mr_images/9_b.png	mr_images/9_a_z_90.png	right	cw	90	NA	NA	NA	NA	0	123	123	208	450.1218924000859	NA	NA	NA	NA	165.51480829995126	165.51480829995126	right	1	3.24891126540024	NA	NA	aaa	1	2026-06-08_14h23.21.224	MR	2023.1.0	60.00765706328852
mr_images/1_b.png	mr_images/1_b_z_90.png	left	cw	90	NA	NA	NA	NA	0	124	124	17	451.4380240002647	NA	NA	NA	NA	300.5280634998344	300.5280634998344	left	1	2.46326401282568	NA	NA	aaa	1	2026-06-08_14h23.21.224	MR	2023.1.0	60.00765706328852
mr_images/3_b.png	mr_images/3_a_z_315.png	right	ccw	45	NA	NA	NA	NA	0	125	125	86	453.95432499982417	NA	NA	NA	NA	588.7690351000056	588.7690351000056	left	0	0.907853854238056	NA	NA	aaa	1	2026-06-08_14h23.21.224	MR	2023.1.0	60.00765706328852
mr_images/1_b.png	mr_images/1_a_z_315.png	right	ccw	45	NA	NA	NA	NA	0	126	126	14	456.2872584001161	NA	NA	NA	NA	660.8921652999707	660.8921652999707	left	0	1.16854549210984	NA	NA	aaa	1	2026-06-08_14h23.21.224	MR	2023.1.0	60.00765706328852
mr_images/6_a.png	mr_images/6_b_z_270.png	right	ccw	90	NA	NA	NA	NA	0	127	127	150	460.1371078998782	NA	NA	NA	NA	578.8535488001071	578.8535488001071	left	0	2.35028471553233	NA	NA	aaa	1	2026-06-08_14h23.21.224	MR	2023.1.0	60.00765706328852
mr_images/12_b.png	mr_images/12_b_z_315.png	left	ccw	45	NA	NA	NA	NA	0	128	128	63	461.8073678999208	NA	NA	NA	NA	488.9493081001565	488.9493081001565	left	1	1.78871302108746	NA	NA	aaa	1	2026-06-08_14h23.21.224	MR	2023.1.0	60.00765706328852
mr_images/11_a.png	mr_images/11_b_z_270.png	right	ccw	90	NA	NA	NA	NA	0	129	129	30	463.5865950002335	NA	NA	NA	NA	520.0284186000936	520.0284186000936	left	0	3.66153616120573	NA	NA	aaa	1	2026-06-08_14h23.21.224	MR	2023.1.0	60.00765706328852
mr_images/12_b.png	mr_images/12_b_z_135.png	left	cw	135	NA	NA	NA	NA	0	130	130	69	466.069263999816	NA	NA	NA	NA	361.3002104000189	361.3002104000189	left	1	1.68375269824173	NA	NA	aaa	1	2026-06-08_14h23.21.224	MR	2023.1.0	60.00765706328852
mr_images/4_a.png	mr_images/4_b_z_45.png	right	cw	45	NA	NA	NA	NA	0	131	131	96	467.335637500044	NA	NA	NA	NA	211.4082029000856	211.4082029000856	left	0	2.99452487041708	NA	NA	aaa	1	2026-06-08_14h23.21.224	MR	2023.1.0	60.00765706328852
mr_images/12_b.png	mr_images/12_a_z_315.png	right	ccw	45	NA	NA	NA	NA	0	132	132	62	468.8021252001636	NA	NA	NA	NA	363.2001681001857	363.2001681001857	left	0	2.32448351557832	NA	NA	aaa	1	2026-06-08_14h23.21.224	MR	2023.1.0	60.00765706328852
mr_images/5_b.png	mr_images/5_b_z_135.png	left	cw	135	NA	NA	NA	NA	0	133	133	141	471.3185523999855	NA	NA	NA	NA	356.1676353001967	356.1676353001967	left	1	3.43772128492128	NA	NA	aaa	1	2026-06-08_14h23.21.224	MR	2023.1.0	60.00765706328852
mr_images/5_a.png	mr_images/5_b_z_135.png	right	cw	135	NA	NA	NA	NA	0	134	134	128	473.8681195001118	NA	NA	NA	NA	331.16063810000196	331.16063810000196	left	0	2.22745466476772	NA	NA	aaa	1	2026-06-08_14h23.21.224	MR	2023.1.0	60.00765706328852
mr_images/9_b.png	mr_images/9_b_z_315.png	left	ccw	45	NA	NA	NA	NA	0	135	135	207	475.9177902000956	NA	NA	NA	NA	193.3736920999363	193.3736920999363	right	0	2.76213220867794	NA	NA	aaa	1	2026-06-08_14h23.21.224	MR	2023.1.0	60.00765706328852
mr_images/12_b.png	mr_images/12_b_z_90.png	left	cw	90	NA	NA	NA	NA	0	136	136	65	477.5009973999113	NA	NA	NA	NA	345.81919849989936	345.81919849989936	left	1	2.08505895070266	NA	NA	aaa	1	2026-06-08_14h23.21.224	MR	2023.1.0	60.00765706328852
mr_images/9_a.png	mr_images/9_b_z_45.png	right	cw	45	NA	NA	NA	NA	0	137	137	192	478.6675280998461	NA	NA	NA	NA	256.83131270017475	256.83131270017475	left	0	1.49882562377024	NA	NA	aaa	1	2026-06-08_14h23.21.224	MR	2023.1.0	60.00765706328852
mr_images/7_a.png	mr_images/7_b_z_315.png	right	ccw	45	NA	NA	NA	NA	0	138	138	170	481.083739799913	NA	NA	NA	NA	354.6513573001139	354.6513573001139	left	0	1.83382405049633	NA	NA	aaa	1	2026-06-08_14h23.21.224	MR	2023.1.0	60.00765706328852
mr_images/12_a.png	mr_images/12_b_z_225.png	right	ccw	135	NA	NA	NA	NA	0	139	139	58	482.8838860001415	NA	NA	NA	NA	286.9975681998767	286.9975681998767	left	0	3.3001741404878	NA	NA	aaa	1	2026-06-08_14h23.21.224	MR	2023.1.0	60.00765706328852
mr_images/11_a.png	mr_images/11_a_z_270.png	left	ccw	90	NA	NA	NA	NA	0	140	140	31	484.7707807002589	NA	NA	NA	NA	429.6575179002248	429.6575179002248	left	1	1.92369100393262	NA	NA	aaa	1	2026-06-08_14h23.21.224	MR	2023.1.0	60.00765706328852
mr_images/7_a.png	mr_images/7_a_z_135.png	left	cw	135	NA	NA	NA	NA	0	141	141	177	486.5164088001475	NA	NA	NA	NA	471.8680770001374	471.8680770001374	left	1	2.66045262792613	NA	NA	aaa	1	2026-06-08_14h23.21.224	MR	2023.1.0	60.00765706328852
mr_images/12_a.png	mr_images/12_a_z_315.png	left	ccw	45	NA	NA	NA	NA	0	142	142	51	488.4203849998303	NA	NA	NA	NA	234.58461710019037	234.58461710019037	left	0	2.53254102438223	NA	NA	aaa	1	2026-06-08_14h23.21.224	MR	2023.1.0	60.00765706328852
mr_images/6_b.png	mr_images/6_b_z_270.png	left	ccw	90	NA	NA	NA	NA	0	143	143	163	489.7992326002568	NA	NA	NA	NA	254.8653628001921	254.8653628001921	left	1	2.36879288998898	NA	NA	aaa	1	2026-06-08_14h23.21.224	MR	2023.1.0	60.00765706328852
mr_images/6_a.png	mr_images/6_a_z_45.png	left	cw	45	NA	NA	NA	NA	0	144	144	145	490.8161424999126	NA	NA	NA	NA	595.6346378000453	595.6346378000453	left	1	1.99381979147438	NA	NA	aaa	1	2026-06-08_14h23.21.224	MR	2023.1.0	60.00765706328852
mr_images/12_b.png	mr_images/12_b_z_270.png	left	ccw	90	NA	NA	NA	NA	0	145	145	67	492.3531519002281	NA	NA	NA	NA	503.56399729987606	503.56399729987606	left	0	1.50357726693619	NA	NA	aaa	1	2026-06-08_14h23.21.224	MR	2023.1.0	60.00765706328852
mr_images/9_b.png	mr_images/9_b_z_135.png	left	cw	135	NA	NA	NA	NA	0	146	146	213	494.5362501000054	NA	NA	NA	NA	530.2436215998605	530.2436215998605	left	1	2.44635618955363	NA	NA	aaa	1	2026-06-08_14h23.21.224	MR	2023.1.0	60.00765706328852
mr_images/11_b.png	mr_images/11_b_z_135.png	left	cw	135	NA	NA	NA	NA	0	147	147	45	496.2650162000209	NA	NA	NA	NA	260.25134389987215	260.25134389987215	left	1	2.15961808001157	NA	NA	aaa	1	2026-06-08_14h23.21.224	MR	2023.1.0	60.00765706328852
mr_images/6_b.png	mr_images/6_b_z_90.png	left	cw	90	NA	NA	NA	NA	0	148	148	161	498.53141270019114	NA	NA	NA	NA	597.5009738998488	597.5009738998488	left	1	1.60175696702208	NA	NA	aaa	1	2026-06-08_14h23.21.224	MR	2023.1.0	60.00765706328852
mr_images/5_a.png	mr_images/5_a_z_270.png	left	ccw	90	NA	NA	NA	NA	0	149	149	127	500.76446120021865	NA	NA	NA	NA	281.76752729993314	281.76752729993314	right	0	2.16898806288373	NA	NA	aaa	1	2026-06-08_14h23.21.224	MR	2023.1.0	60.00765706328852
mr_images/6_a.png	mr_images/6_a_z_270.png	left	ccw	90	NA	NA	NA	NA	0	150	150	151	503.0306973000989	NA	NA	NA	NA	401.17813679995015	401.17813679995015	left	1	2.02930323022883	NA	NA	aaa	1	2026-06-08_14h23.21.224	MR	2023.1.0	60.00765706328852
mr_images/9_a.png	mr_images/9_a_z_135.png	left	cw	135	NA	NA	NA	NA	0	151	151	201	504.5972219998948	NA	NA	NA	NA	474.4015500000678	474.4015500000678	left	1	1.77352276106831	NA	NA	aaa	1	2026-06-08_14h23.21.224	MR	2023.1.0	60.00765706328852
mr_images/7_a.png	mr_images/7_b_z_270.png	right	ccw	90	NA	NA	NA	NA	0	152	152	174	506.9301725998521	NA	NA	NA	NA	509.11314939986914	509.11314939986914	right	1	2.88672931410838	NA	NA	aaa	1	2026-06-08_14h23.21.224	MR	2023.1.0	60.00765706328852
mr_images/12_a.png	mr_images/12_b_z_135.png	right	cw	135	NA	NA	NA	NA	0	153	153	56	508.580043700058	NA	NA	NA	NA	507.4636340001598	507.4636340001598	left	0	1.77745314512867	NA	NA	aaa	1	2026-06-08_14h23.21.224	MR	2023.1.0	60.00765706328852
mr_images/5_b.png	mr_images/5_b_z_225.png	left	ccw	135	NA	NA	NA	NA	0	154	154	143	511.1963237002492	NA	NA	NA	NA	312.3404541001655	312.3404541001655	left	1	2.00730261008721	NA	NA	aaa	1	2026-06-08_14h23.21.224	MR	2023.1.0	60.00765706328852
mr_images/3_b.png	mr_images/3_b_z_225.png	left	ccw	135	NA	NA	NA	NA	0	155	155	95	512.812797700055	NA	NA	NA	NA	227.18590679997575	227.18590679997575	left	1	1.79435111267958	NA	NA	aaa	1	2026-06-08_14h23.21.224	MR	2023.1.0	60.00765706328852
mr_images/4_a.png	mr_images/4_a_z_90.png	left	cw	90	NA	NA	NA	NA	0	156	156	101	515.3457231000066	NA	NA	NA	NA	570.0879819998518	570.0879819998518	left	1	3.03653127897996	NA	NA	aaa	1	2026-06-08_14h23.21.224	MR	2023.1.0	60.00765706328852
mr_images/11_a.png	mr_images/11_a_z_225.png	left	ccw	135	NA	NA	NA	NA	0	157	157	35	517.128750000149	NA	NA	NA	NA	368.59933560015634	368.59933560015634	right	0	3.86397393362131	NA	NA	aaa	1	2026-06-08_14h23.21.224	MR	2023.1.0	60.00765706328852
mr_images/3_a.png	mr_images/3_b_z_90.png	right	cw	90	NA	NA	NA	NA	0	158	158	76	519.4952739998698	NA	NA	NA	NA	445.3220414002426	445.3220414002426	left	0	2.07042264577467	NA	NA	aaa	1	2026-06-08_14h23.21.224	MR	2023.1.0	60.00765706328852
mr_images/5_a.png	mr_images/5_a_z_225.png	left	ccw	135	NA	NA	NA	NA	0	159	159	131	522.7280530999415	NA	NA	NA	NA	179.00864910008386	179.00864910008386	left	1	1.86081956268754	NA	NA	aaa	1	2026-06-08_14h23.21.224	MR	2023.1.0	60.00765706328852
mr_images/4_a.png	mr_images/4_a_z_135.png	left	cw	135	NA	NA	NA	NA	0	160	160	105	524.9110363000073	NA	NA	NA	NA	338.1226964001544	338.1226964001544	left	1	2.27217730705161	NA	NA	aaa	1	2026-06-08_14h23.21.224	MR	2023.1.0	60.00765706328852
mr_images/3_b.png	mr_images/3_a_z_270.png	right	ccw	90	NA	NA	NA	NA	0	161	161	90	527.0607366999611	NA	NA	NA	NA	563.5056735998951	563.5056735998951	left	0	2.70969868416432	NA	NA	aaa	1	2026-06-08_14h23.21.224	MR	2023.1.0	60.00765706328852
mr_images/1_a.png	mr_images/1_a_z_315.png	left	ccw	45	NA	NA	NA	NA	0	162	162	3	529.7103721001185	NA	NA	NA	NA	604.4687534999102	604.4687534999102	right	0	4.20632977725472	NA	NA	aaa	1	2026-06-08_14h23.21.224	MR	2023.1.0	60.00765706328852
mr_images/4_b.png	mr_images/4_b_z_135.png	left	cw	135	NA	NA	NA	NA	0	163	163	117	532.593362600077	NA	NA	NA	NA	184.6916046999395	184.6916046999395	right	0	3.7462179508293	NA	NA	aaa	1	2026-06-08_14h23.21.224	MR	2023.1.0	60.00765706328852
mr_images/9_b.png	mr_images/9_a_z_45.png	right	cw	45	NA	NA	NA	NA	0	164	164	204	536.2261864999309	NA	NA	NA	NA	307.8909950000234	307.8909950000234	left	0	2.52338918892201	NA	NA	aaa	1	2026-06-08_14h23.21.224	MR	2023.1.0	60.00765706328852
mr_images/1_b.png	mr_images/1_a_z_45.png	right	cw	45	NA	NA	NA	NA	0	165	165	12	538.1092051002197	NA	NA	NA	NA	157.5286882999353	157.5286882999353	right	1	2.70258688635658	NA	NA	aaa	1	2026-06-08_14h23.21.224	MR	2023.1.0	60.00765706328852
mr_images/3_a.png	mr_images/3_a_z_45.png	left	cw	45	NA	NA	NA	NA	0	166	166	73	540.0756279001944	NA	NA	NA	NA	652.6098850998096	652.6098850998096	right	1	3.23981756495778	NA	NA	aaa	1	2026-06-08_14h23.21.224	MR	2023.1.0	60.00765706328852
mr_images/1_a.png	mr_images/1_b_z_135.png	right	cw	135	NA	NA	NA	NA	0	167	167	8	541.8753629000857	NA	NA	NA	NA	129.64918910013512	129.64918910013512	None	0	NA	NA	NA	aaa	1	2026-06-08_14h23.21.224	MR	2023.1.0	60.00765706328852
mr_images/5_b.png	mr_images/5_a_z_90.png	right	cw	90	NA	NA	NA	NA	0	168	168	136	543.6251266002655	NA	NA	NA	NA	242.96703709987924	242.96703709987924	left	0	1.96700553048868	NA	NA	aaa	1	2026-06-08_14h23.21.224	MR	2023.1.0	60.00765706328852
mr_images/9_a.png	mr_images/9_a_z_45.png	left	cw	45	NA	NA	NA	NA	0	169	169	193	547.3288309001364	NA	NA	NA	NA	320.9432973000221	320.9432973000221	left	1	1.69171568856109	NA	NA	aaa	1	2026-06-08_14h23.21.224	MR	2023.1.0	60.00765706328852
mr_images/6_a.png	mr_images/6_b_z_315.png	right	ccw	45	NA	NA	NA	NA	0	170	170	146	549.4243339002132	NA	NA	NA	NA	388.0303266001865	388.0303266001865	left	0	2.55364040972199	NA	NA	aaa	1	2026-06-08_14h23.21.224	MR	2023.1.0	60.00765706328852
mr_images/1_a.png	mr_images/1_a_z_45.png	left	cw	45	NA	NA	NA	NA	0	171	171	1	551.1907648998313	NA	NA	NA	NA	544.1439741998911	544.1439741998911	left	1	3.66055061959196	NA	NA	aaa	1	2026-06-08_14h23.21.224	MR	2023.1.0	60.00765706328852
mr_images/3_a.png	mr_images/3_b_z_135.png	right	cw	135	NA	NA	NA	NA	0	172	172	80	553.877826299984	NA	NA	NA	NA	525.4777857000008	525.4777857000008	left	0	1.98536085023079	NA	NA	aaa	1	2026-06-08_14h23.21.224	MR	2023.1.0	60.00765706328852
mr_images/11_a.png	mr_images/11_a_z_45.png	left	cw	45	NA	NA	NA	NA	0	173	173	25	556.1574861002155	NA	NA	NA	NA	573.1709771999158	573.1709771999158	left	1	2.35352162749041	NA	NA	aaa	1	2026-06-08_14h23.21.224	MR	2023.1.0	60.00765706328852
mr_images/11_b.png	mr_images/11_b_z_45.png	left	cw	45	NA	NA	NA	NA	0	174	174	37	557.4941175002605	NA	NA	NA	NA	199.12293410021812	199.12293410021812	left	1	4.03037359321024	NA	NA	aaa	1	2026-06-08_14h23.21.224	MR	2023.1.0	60.00765706328852
mr_images/3_a.png	mr_images/3_a_z_90.png	left	cw	90	NA	NA	NA	NA	0	175	175	77	560.8102887999266	NA	NA	NA	NA	533.160229400266	533.160229400266	right	0	3.63555672566872	NA	NA	aaa	1	2026-06-08_14h23.21.224	MR	2023.1.0	60.00765706328852
mr_images/12_a.png	mr_images/12_b_z_90.png	right	cw	90	NA	NA	NA	NA	0	176	176	52	562.9724548002705	NA	NA	NA	NA	225.16931950021535	225.16931950021535	left	0	2.13302970549557	NA	NA	aaa	1	2026-06-08_14h23.21.224	MR	2023.1.0	60.00765706328852
mr_images/5_b.png	mr_images/5_b_z_270.png	left	ccw	90	NA	NA	NA	NA	0	177	177	139	565.3053529998288	NA	NA	NA	NA	335.5203390000388	335.5203390000388	right	0	2.53419320017565	NA	NA	aaa	1	2026-06-08_14h23.21.224	MR	2023.1.0	60.00765706328852
mr_images/4_b.png	mr_images/4_b_z_45.png	left	cw	45	NA	NA	NA	NA	0	178	178	109	566.9386211000383	NA	NA	NA	NA	438.0230482001789	438.0230482001789	left	1	4.04248775553424	NA	NA	aaa	1	2026-06-08_14h23.21.224	MR	2023.1.0	60.00765706328852
mr_images/4_a.png	mr_images/4_b_z_90.png	right	cw	90	NA	NA	NA	NA	0	179	179	100	569.5548562002368	NA	NA	NA	NA	143.53132370021194	143.53132370021194	left	0	3.29313973698299	NA	NA	aaa	1	2026-06-08_14h23.21.224	MR	2023.1.0	60.00765706328852
mr_images/6_b.png	mr_images/6_b_z_225.png	left	ccw	135	NA	NA	NA	NA	0	180	180	167	572.6376713998616	NA	NA	NA	NA	441.7239100998267	441.7239100998267	left	1	3.00930605514441	NA	NA	aaa	1	2026-06-08_14h23.21.224	MR	2023.1.0	60.00765706328852
mr_images/4_b.png	mr_images/4_a_z_90.png	right	cw	90	NA	NA	NA	NA	0	181	181	112	575.3041809001006	NA	NA	NA	NA	328.0220552999526	328.0220552999526	left	0	3.30481532646809	NA	NA	aaa	1	2026-06-08_14h23.21.224	MR	2023.1.0	60.00765706328852
mr_images/7_b.png	mr_images/7_a_z_45.png	right	cw	45	NA	NA	NA	NA	0	182	182	180	577.0205251998268	NA	NA	NA	NA	476.4348647999577	476.4348647999577	right	1	1.24539394828025	NA	NA	aaa	1	2026-06-08_14h23.21.224	MR	2023.1.0	60.00765706328852
mr_images/12_b.png	mr_images/12_a_z_45.png	right	cw	45	NA	NA	NA	NA	0	183	183	60	578.3201733999886	NA	NA	NA	NA	264.78047550003976	264.78047550003976	left	0	1.80328773648944	NA	NA	aaa	1	2026-06-08_14h23.21.224	MR	2023.1.0	60.00765706328852
mr_images/1_b.png	mr_images/1_a_z_225.png	right	ccw	135	NA	NA	NA	NA	0	184	184	22	580.3367094001733	NA	NA	NA	NA	147.0994962998666	147.0994962998666	left	1	4.15583395271096	NA	NA	aaa	1	2026-06-08_14h23.21.224	MR	2023.1.0	60.00765706328852
mr_images/7_a.png	mr_images/7_a_z_270.png	left	ccw	90	NA	NA	NA	NA	0	185	185	175	583.4696086999029	NA	NA	NA	NA	646.599766400177	646.599766400177	right	0	3.10553201346193	NA	NA	aaa	1	2026-06-08_14h23.21.224	MR	2023.1.0	60.00765706328852
mr_images/12_a.png	mr_images/12_b_z_45.png	right	cw	45	NA	NA	NA	NA	0	186	186	48	586.7399289002642	NA	NA	NA	NA	271.8461929000914	271.8461929000914	right	1	1.61664146266412	NA	NA	aaa	1	2026-06-08_14h23.21.224	MR	2023.1.0	60.00765706328852
mr_images/4_b.png	mr_images/4_a_z_135.png	right	cw	135	NA	NA	NA	NA	0	187	187	116	588.2023209999315	NA	NA	NA	NA	505.1303473999724	505.1303473999724	left	0	1.88458472618368	NA	NA	aaa	1	2026-06-08_14h23.21.224	MR	2023.1.0	60.00765706328852
mr_images/3_b.png	mr_images/3_a_z_90.png	right	cw	90	NA	NA	NA	NA	0	188	188	88	589.518751999829	NA	NA	NA	NA	655.6428606999107	655.6428606999107	right	1	2.36969212198164	NA	NA	aaa	1	2026-06-08_14h23.21.224	MR	2023.1.0	60.00765706328852
mr_images/9_a.png	mr_images/9_b_z_135.png	right	cw	135	NA	NA	NA	NA	0	189	189	200	592.40171799995	NA	NA	NA	NA	483.4359054001979	483.4359054001979	left	1	1.44366014690604	NA	NA	aaa	1	2026-06-08_14h23.21.224	MR	2023.1.0	60.00765706328852
mr_images/1_b.png	mr_images/1_a_z_270.png	right	ccw	90	NA	NA	NA	NA	0	190	190	18	595.0846146000549	NA	NA	NA	NA	499.06465259986	499.06465259986	left	0	1.8214072418632	NA	NA	aaa	1	2026-06-08_14h23.21.224	MR	2023.1.0	60.00765706328852
mr_images/4_b.png	mr_images/4_b_z_225.png	left	ccw	135	NA	NA	NA	NA	0	191	191	119	596.9677018001676	NA	NA	NA	NA	NA	125.08302879985422	right	0	4.55423125077505	NA	NA	aaa	1	2026-06-08_14h23.21.224	MR	2023.1.0	60.00765706328852
mr_images/11_b.png	mr_images/11_a_z_315.png	right	ccw	45	NA	NA	NA	NA	0	192	192	38	598.2842174000107	NA	NA	NA	NA	284.34445460001007	284.34445460001007	left	0	2.68221413146239	NA	NA	aaa	1	2026-06-08_14h23.21.224	MR	2023.1.0	60.00765706328852
mr_images/1_b.png	mr_images/1_a_z_90.png	right	cw	90	NA	NA	NA	NA	0	193	193	16	600.6838666000403	NA	NA	NA	NA	501.33114090003073	501.33114090003073	right	1	2.35856339393649	NA	NA	aaa	1	2026-06-08_14h23.21.224	MR	2023.1.0	60.00765706328852
mr_images/1_a.png	mr_images/1_a_z_270.png	left	ccw	90	NA	NA	NA	NA	0	194	194	7	603.9172181999311	NA	NA	NA	NA	NA	220.41990419989452	left	1	2.17919083021116	NA	NA	aaa	1	2026-06-08_14h23.21.224	MR	2023.1.0	60.00765706328852
mr_images/12_b.png	mr_images/12_b_z_45.png	left	cw	45	NA	NA	NA	NA	0	195	195	61	608.087045900058	NA	NA	NA	NA	478.0342163001187	478.0342163001187	left	1	1.39274657575879	NA	NA	aaa	1	2026-06-08_14h23.21.224	MR	2023.1.0	60.00765706328852
mr_images/1_a.png	mr_images/1_b_z_270.png	right	ccw	90	NA	NA	NA	NA	0	196	196	6	612.2156282998621	NA	NA	NA	NA	229.4353289999999	229.4353289999999	left	0	3.16164863703307	NA	NA	aaa	1	2026-06-08_14h23.21.224	MR	2023.1.0	60.00765706328852
mr_images/4_a.png	mr_images/4_a_z_315.png	left	ccw	45	NA	NA	NA	NA	0	197	197	99	614.4656823999248	NA	NA	NA	NA	614.9984030998312	614.9984030998312	right	0	2.38490976660978	NA	NA	aaa	1	2026-06-08_14h23.21.224	MR	2023.1.0	60.00765706328852
mr_images/6_b.png	mr_images/6_a_z_315.png	right	ccw	45	NA	NA	NA	NA	0	198	198	158	617.1649962002411	NA	NA	NA	NA	538.6423654998653	538.6423654998653	right	1	1.49801377940457	NA	NA	aaa	1	2026-06-08_14h23.21.224	MR	2023.1.0	60.00765706328852
mr_images/7_a.png	mr_images/7_a_z_90.png	left	cw	90	NA	NA	NA	NA	0	199	199	173	618.6521943998523	NA	NA	NA	NA	608.6158552002162	608.6158552002162	right	0	4.47751975792926	NA	NA	aaa	1	2026-06-08_14h23.21.224	MR	2023.1.0	60.00765706328852
mr_images/1_a.png	mr_images/1_b_z_90.png	right	cw	90	NA	NA	NA	NA	0	200	200	4	619.9149663001299	NA	NA	NA	NA	214.1706746001728	214.1706746001728	left	0	3.25294528750237	NA	NA	aaa	1	2026-06-08_14h23.21.224	MR	2023.1.0	60.00765706328852
mr_images/3_b.png	mr_images/3_a_z_135.png	right	cw	135	NA	NA	NA	NA	0	201	201	92	622.5141418999992	NA	NA	NA	NA	333.0209468998946	333.0209468998946	left	0	2.03508081904147	NA	NA	aaa	1	2026-06-08_14h23.21.224	MR	2023.1.0	60.00765706328852
mr_images/3_a.png	mr_images/3_b_z_270.png	right	ccw	90	NA	NA	NA	NA	0	202	202	78	624.2347317002714	NA	NA	NA	NA	276.09589840006083	276.09589840006083	left	0	3.01808863237966	NA	NA	aaa	1	2026-06-08_14h23.21.224	MR	2023.1.0	60.00765706328852
mr_images/3_b.png	mr_images/3_b_z_90.png	left	cw	90	NA	NA	NA	NA	0	203	203	89	627.6638596998528	NA	NA	NA	NA	451.97117620008066	451.97117620008066	left	1	2.63210645911749	NA	NA	aaa	1	2026-06-08_14h23.21.224	MR	2023.1.0	60.00765706328852
mr_images/6_b.png	mr_images/6_a_z_135.png	right	cw	135	NA	NA	NA	NA	0	204	204	164	630.7463051001541	NA	NA	NA	NA	351.8350070999004	351.8350070999004	left	0	3.21767846157309	NA	NA	aaa	1	2026-06-08_14h23.21.224	MR	2023.1.0	60.00765706328852
mr_images/1_a.png	mr_images/1_a_z_135.png	left	cw	135	NA	NA	NA	NA	0	205	205	9	634.2625215998851	NA	NA	NA	NA	251.5989310001023	251.5989310001023	left	1	1.65745118435007	NA	NA	aaa	1	2026-06-08_14h23.21.224	MR	2023.1.0	60.00765706328852
mr_images/6_a.png	mr_images/6_b_z_90.png	right	cw	90	NA	NA	NA	NA	0	206	206	148	638.6787228002213	NA	NA	NA	NA	253.3153119999915	253.3153119999915	left	0	1.87155389238615	NA	NA	aaa	1	2026-06-08_14h23.21.224	MR	2023.1.0	60.00765706328852
mr_images/3_a.png	mr_images/3_b_z_225.png	right	ccw	135	NA	NA	NA	NA	0	207	207	82	641.7447907002643	NA	NA	NA	NA	658.3591569000855	658.3591569000855	left	0	2.00348503363784	NA	NA	aaa	1	2026-06-08_14h23.21.224	MR	2023.1.0	60.00765706328852
mr_images/6_b.png	mr_images/6_b_z_45.png	left	cw	45	NA	NA	NA	NA	0	208	208	157	643.8112437999807	NA	NA	NA	NA	316.2278471002355	316.2278471002355	left	1	2.02327382436488	NA	NA	aaa	1	2026-06-08_14h23.21.224	MR	2023.1.0	60.00765706328852
mr_images/5_b.png	mr_images/5_b_z_45.png	left	cw	45	NA	NA	NA	NA	0	209	209	133	646.0610193000175	NA	NA	NA	NA	490.3325060000643	490.3325060000643	left	1	1.04175326798577	NA	NA	aaa	1	2026-06-08_14h23.21.224	MR	2023.1.0	60.00765706328852
mr_images/5_a.png	mr_images/5_a_z_90.png	left	cw	90	NA	NA	NA	NA	0	210	210	125	649.1816173000261	NA	NA	NA	NA	481.6171066998504	481.6171066998504	left	1	2.09113287448417	NA	NA	aaa	1	2026-06-08_14h23.21.224	MR	2023.1.0	60.00765706328852
mr_images/5_a.png	mr_images/5_b_z_45.png	right	cw	45	NA	NA	NA	NA	0	211	211	120	652.0809388002381	NA	NA	NA	NA	410.21091250004247	410.21091250004247	right	1	2.9434343149187	NA	NA	aaa	1	2026-06-08_14h23.21.224	MR	2023.1.0	60.00765706328852
mr_images/5_b.png	mr_images/5_b_z_315.png	left	ccw	45	NA	NA	NA	NA	0	212	212	135	655.1096108998172	NA	NA	NA	NA	662.441958699841	662.441958699841	right	0	4.35502767947037	NA	NA	aaa	1	2026-06-08_14h23.21.224	MR	2023.1.0	60.00765706328852
mr_images/11_b.png	mr_images/11_b_z_315.png	left	ccw	45	NA	NA	NA	NA	0	213	213	39	657.8258760999888	NA	NA	NA	NA	270.12973350007087	270.12973350007087	left	1	1.27846803760622	NA	NA	aaa	1	2026-06-08_14h23.21.224	MR	2023.1.0	60.00765706328852
mr_images/4_b.png	mr_images/4_a_z_45.png	right	cw	45	NA	NA	NA	NA	0	214	214	108	660.3589033000171	NA	NA	NA	NA	432.1436863001436	432.1436863001436	left	0	2.39599811506923	NA	NA	aaa	1	2026-06-08_14h23.21.224	MR	2023.1.0	60.00765706328852
mr_images/12_b.png	mr_images/12_a_z_135.png	right	cw	135	NA	NA	NA	NA	0	215	215	68	661.9087712001055	NA	NA	NA	NA	309.9908027998172	309.9908027998172	left	0	2.26843046897557	NA	NA	aaa	1	2026-06-08_14h23.21.224	MR	2023.1.0	60.00765706328852
NA	NA	NA	NA	NA	NA	NA	NA	NA	NA	NA	NA	NA	NA	NA	NA	NA	NA	NA	NA	NA	NA	NA	666.7413808000274	668.7411309001036	NA	NA	NA	NA	NA	NA
