sequence	training_session.thisRepN	training_session.thisTrialN	training_session.thisN	training_session.thisIndex	training_2n.thisRepN	training_2n.thisTrialN	training_2n.thisN	training_2n.thisIndex	training_3n.thisRepN	training_3n.thisTrialN	training_3n.thisN	training_3n.thisIndex	training_4n.thisRepN	training_4n.thisTrialN	training_4n.thisN	training_4n.thisIndex	allrep_2nback.thisRepN	allrep_2nback.thisTrialN	allrep_2nback.thisN	allrep_2nback.thisIndex	trials_2nback.thisRepN	trials_2nback.thisTrialN	trials_2nback.thisN	trials_2nback.thisIndex	allrep_3nback.thisRepN	allrep_3nback.thisTrialN	allrep_3nback.thisN	allrep_3nback.thisIndex	trials_3nback.thisRepN	trials_3nback.thisTrialN	trials_3nback.thisN	trials_3nback.thisIndex	allrep_4nback.thisRepN	allrep_4nback.thisTrialN	allrep_4nback.thisN	allrep_4nback.thisIndex	trials_4nback.thisRepN	trials_4nback.thisTrialN	trials_4nback.thisN	trials_4nback.thisIndex	buffer02_txt.started	test_griddot_resp2.started	test_griddot_resp2.keys	test_griddot_resp2.rt	buffer23_txt.started	test_griddot_resp3.started	test_griddot_resp3.keys	test_griddot_resp3.rt	buffer34_txt.started	test_griddot_resp4.started	test_griddot_resp4.keys	test_griddot_resp4.rt	confirm_resp.started	confirm_resp.keys	confirm_resp.rt	instr_text_2.started	buffer02_txt.stopped	griddot_resp2.started	griddot_resp2.keys	griddot_resp2.rt	griddot_resp3.started	griddot_resp3.keys	griddot_resp3.rt	buffer34_txt.stopped	griddot_resp4.started	griddot_resp4.keys	griddot_resp4.rt	participant	session	date	expName	psychopyVersion	frameRate	...75
[(0, 1), (0, 0), (2, 2), (0, 0), (2, 1), (0, 0), (2, 0), (2, 0)]	0	0	0	0	0	0	0	515	NA	NA	NA	NA	NA	NA	NA	NA	NA	NA	NA	NA	NA	NA	NA	NA	NA	NA	NA	NA	NA	NA	NA	NA	NA	NA	NA	NA	NA	NA	NA	NA	354.89219299983233	359.0081452000886	['left', 'right']	[6.066201199777424, 8.751826499588788]	NA	NA	NA	NA	NA	NA	NA	NA	NA	NA	NA	NA	NA	NA	NA	NA	NA	NA	NA	NA	NA	NA	NA	ABF	001	2026-03-12_13h16.02.571	SS	2023.1.0	60.00888132617536	NA
[(2, 1), (1, 1), (1, 0), (1, 1), (0, 2), (1, 1), (1, 0), (0, 0)]	0	0	0	0	0	1	1	282	NA	NA	NA	NA	NA	NA	NA	NA	NA	NA	NA	NA	NA	NA	NA	NA	NA	NA	NA	NA	NA	NA	NA	NA	NA	NA	NA	NA	NA	NA	NA	NA	NA	375.9559082998894	['left', 'left', 'left']	[5.525190900079906, 10.15943649969995, 13.4356962996535]	NA	NA	NA	NA	NA	NA	NA	NA	NA	NA	NA	NA	NA	NA	NA	NA	NA	NA	NA	NA	NA	NA	NA	ABF	001	2026-03-12_13h16.02.571	SS	2023.1.0	60.00888132617536	NA
[(2, 2), (1, 2), (1, 0), (0, 0), (1, 0), (1, 1), (1, 0), (1, 0)]	0	0	0	0	0	2	2	313	NA	NA	NA	NA	NA	NA	NA	NA	NA	NA	NA	NA	NA	NA	NA	NA	NA	NA	NA	NA	NA	NA	NA	NA	NA	NA	NA	NA	NA	NA	NA	NA	NA	392.95351460017264	['left', 'left', 'right', 'left', 'right', 'left']	[4.938177899923176, 6.940768599510193, 9.843128899578005, 11.15927019994706, 13.656458199955523, 14.648560399655253]	NA	NA	NA	NA	NA	NA	NA	NA	NA	NA	NA	NA	NA	NA	NA	NA	NA	NA	NA	NA	NA	NA	NA	ABF	001	2026-03-12_13h16.02.571	SS	2023.1.0	60.00888132617536	NA
[(2, 0), (1, 1), (2, 1), (0, 2), (0, 2), (2, 1), (1, 1), (0, 2), (2, 1)]	0	0	0	0	NA	NA	NA	NA	0	0	0	19	NA	NA	NA	NA	NA	NA	NA	NA	NA	NA	NA	NA	NA	NA	NA	NA	NA	NA	NA	NA	NA	NA	NA	NA	NA	NA	NA	NA	NA	NA	NA	NA	409.88447220018134	413.9506537998095	['left', 'left', 'left', 'right', 'right', 'left']	[7.156397599726915, 9.20760539965704, 11.941217499785125, 13.448251799680293, 15.966040099970996, 16.51715929992497]	NA	NA	NA	NA	NA	NA	NA	NA	NA	NA	NA	NA	NA	NA	NA	NA	NA	NA	NA	ABF	001	2026-03-12_13h16.02.571	SS	2023.1.0	60.00888132617536	NA
[(0, 1), (2, 2), (1, 0), (2, 1), (0, 0), (2, 1), (0, 0), (0, 0), (2, 1)]	0	0	0	0	NA	NA	NA	NA	0	1	1	567	NA	NA	NA	NA	NA	NA	NA	NA	NA	NA	NA	NA	NA	NA	NA	NA	NA	NA	NA	NA	NA	NA	NA	NA	NA	NA	NA	NA	NA	NA	NA	NA	NA	432.9479359998368	['left', 'left', 'left', 'right', 'right', 'right']	[7.501229499466717, 9.501657399814576, 11.46184579981491, 13.417991499882191, 15.518446299713105, 16.825559799559414]	NA	NA	NA	NA	NA	NA	NA	NA	NA	NA	NA	NA	NA	NA	NA	NA	NA	NA	NA	ABF	001	2026-03-12_13h16.02.571	SS	2023.1.0	60.00888132617536	NA
[(2, 2), (0, 0), (1, 1), (0, 0), (0, 0), (1, 0), (1, 0), (1, 2), (1, 0)]	0	0	0	0	NA	NA	NA	NA	0	2	2	126	NA	NA	NA	NA	NA	NA	NA	NA	NA	NA	NA	NA	NA	NA	NA	NA	NA	NA	NA	NA	NA	NA	NA	NA	NA	NA	NA	NA	NA	NA	NA	NA	NA	451.94522169977427	['left', 'right', 'left', 'left', 'left', 'right']	[8.822453999891877, 9.692551299929619, 10.959691599942744, 13.234011799562722, 15.70416219998151, 17.193067399784923]	NA	NA	NA	NA	NA	NA	NA	NA	NA	NA	NA	NA	NA	NA	NA	NA	NA	NA	NA	ABF	001	2026-03-12_13h16.02.571	SS	2023.1.0	60.00888132617536	NA
[(0, 0), (0, 2), (1, 2), (0, 2), (1, 1), (1, 1), (0, 2), (2, 1), (1, 1), (1, 1)]	0	0	0	0	NA	NA	NA	NA	NA	NA	NA	NA	0	0	0	630	NA	NA	NA	NA	NA	NA	NA	NA	NA	NA	NA	NA	NA	NA	NA	NA	NA	NA	NA	NA	NA	NA	NA	NA	NA	NA	NA	NA	NA	NA	NA	NA	470.8926638998091	474.9453948000446	['left', 'right', 'right', 'left', 'right', 'right']	[8.7696398999542, 11.024537399876863, 12.992636600043625, 15.11791789997369, 17.132472699973732, 19.6937176999636]	NA	NA	NA	NA	NA	NA	NA	NA	NA	NA	NA	NA	NA	NA	NA	ABF	001	2026-03-12_13h16.02.571	SS	2023.1.0	60.00888132617536	NA
[(0, 1), (2, 0), (2, 1), (2, 0), (2, 2), (0, 1), (0, 0), (2, 0), (2, 2), (0, 0)]	0	0	0	0	NA	NA	NA	NA	NA	NA	NA	NA	0	1	1	389	NA	NA	NA	NA	NA	NA	NA	NA	NA	NA	NA	NA	NA	NA	NA	NA	NA	NA	NA	NA	NA	NA	NA	NA	NA	NA	NA	NA	NA	NA	NA	NA	NA	495.9559281999246	['left', 'right', 'left', 'right', 'right', 'left']	[8.826898999977857, 11.968214500229806, 12.686304899863899, 14.867516499944031, 17.199181099887937, 18.768288500141352]	NA	NA	NA	NA	NA	NA	NA	NA	NA	NA	NA	NA	NA	NA	NA	ABF	001	2026-03-12_13h16.02.571	SS	2023.1.0	60.00888132617536	NA
[(1, 1), (0, 2), (2, 1), (2, 0), (1, 1), (0, 2), (1, 0), (2, 1), (1, 0), (1, 0)]	0	0	0	0	NA	NA	NA	NA	NA	NA	NA	NA	0	2	2	603	NA	NA	NA	NA	NA	NA	NA	NA	NA	NA	NA	NA	NA	NA	NA	NA	NA	NA	NA	NA	NA	NA	NA	NA	NA	NA	NA	NA	NA	NA	NA	NA	NA	516.9529633000493	['right', 'right', 'left', 'right', 'left', 'left']	[9.263210699893534, 11.005348099861294, 12.677458699792624, 15.481784699950367, 17.968901299871504, 18.853265999816358]	NA	NA	NA	NA	NA	NA	NA	NA	NA	NA	NA	NA	NA	NA	NA	ABF	001	2026-03-12_13h16.02.571	SS	2023.1.0	60.00888132617536	NA
NA	0	0	0	0	NA	NA	NA	NA	NA	NA	NA	NA	NA	NA	NA	NA	NA	NA	NA	NA	NA	NA	NA	NA	NA	NA	NA	NA	NA	NA	NA	NA	NA	NA	NA	NA	NA	NA	NA	NA	NA	NA	NA	NA	NA	NA	NA	NA	NA	NA	NA	NA	536.8834036998451	y	2.8227434996515512	NA	NA	NA	NA	NA	NA	NA	NA	NA	NA	NA	NA	ABF	001	2026-03-12_13h16.02.571	SS	2023.1.0	60.00888132617536	NA
[(0, 2), (1, 0), (0, 2), (0, 1), (1, 0), (1, 1), (0, 2), (1, 1)]	NA	NA	NA	NA	NA	NA	NA	NA	NA	NA	NA	NA	NA	NA	NA	NA	0	0	0	0	0	0	0	36	NA	NA	NA	NA	NA	NA	NA	NA	NA	NA	NA	NA	NA	NA	NA	NA	570.1622623000294	NA	NA	NA	NA	NA	NA	NA	NA	NA	NA	NA	NA	NA	NA	539.7332363999449	573.2283311998472	574.2450136998668	['right', 'left', 'right', 'left', 'left', 'right']	[4.867975699715316, 7.083629199769348, 9.010300299618393, 11.841142799705267, 13.616405499633402, 15.856944399885833]	NA	NA	NA	NA	NA	NA	NA	ABF	001	2026-03-12_13h16.02.571	SS	2023.1.0	60.00888132617536	NA
[(1, 2), (0, 2), (1, 0), (1, 2), (1, 0), (1, 2), (2, 2), (1, 1)]	NA	NA	NA	NA	NA	NA	NA	NA	NA	NA	NA	NA	NA	NA	NA	NA	0	0	0	0	0	1	1	322	NA	NA	NA	NA	NA	NA	NA	NA	NA	NA	NA	NA	NA	NA	NA	NA	NA	NA	NA	NA	NA	NA	NA	NA	NA	NA	NA	NA	NA	NA	NA	NA	NA	591.2426335001364	['left', 'right', 'left', 'right', 'left', 'left']	[4.954246699810028, 7.57182849990204, 9.217883000150323, 11.13942930009216, 12.845423699822277, 15.735668399836868]	NA	NA	NA	NA	NA	NA	NA	ABF	001	2026-03-12_13h16.02.571	SS	2023.1.0	60.00888132617536	NA
[(2, 1), (1, 0), (2, 1), (2, 0), (1, 2), (2, 2), (1, 2), (2, 0)]	NA	NA	NA	NA	NA	NA	NA	NA	NA	NA	NA	NA	NA	NA	NA	NA	0	0	0	0	0	2	2	221	NA	NA	NA	NA	NA	NA	NA	NA	NA	NA	NA	NA	NA	NA	NA	NA	NA	NA	NA	NA	NA	NA	NA	NA	NA	NA	NA	NA	NA	NA	NA	NA	NA	608.2403365997598	['right', 'left', 'left', 'left', 'left', 'left']	[4.915504999924451, 6.678541699890047, 9.60979470005259, 11.804283699952066, 12.91254170006141, 15.262199699878693]	NA	NA	NA	NA	NA	NA	NA	ABF	001	2026-03-12_13h16.02.571	SS	2023.1.0	60.00888132617536	NA
[(0, 0), (1, 2), (1, 1), (2, 1), (1, 1), (0, 2), (1, 1), (1, 1)]	NA	NA	NA	NA	NA	NA	NA	NA	NA	NA	NA	NA	NA	NA	NA	NA	0	0	0	0	0	3	3	480	NA	NA	NA	NA	NA	NA	NA	NA	NA	NA	NA	NA	NA	NA	NA	NA	NA	NA	NA	NA	NA	NA	NA	NA	NA	NA	NA	NA	NA	NA	NA	NA	NA	625.2379743000492	['left', 'left', 'right', 'left', 'right', 'right']	[5.101149499882013, 7.311157800257206, 8.77314170030877, 10.952053800225258, 12.686638200189918, 15.414900899864733]	NA	NA	NA	NA	NA	NA	NA	ABF	001	2026-03-12_13h16.02.571	SS	2023.1.0	60.00888132617536	NA
[(1, 1), (2, 1), (1, 1), (2, 1), (1, 2), (1, 2), (0, 0), (0, 0)]	NA	NA	NA	NA	NA	NA	NA	NA	NA	NA	NA	NA	NA	NA	NA	NA	0	0	0	0	0	4	4	250	NA	NA	NA	NA	NA	NA	NA	NA	NA	NA	NA	NA	NA	NA	NA	NA	NA	NA	NA	NA	NA	NA	NA	NA	NA	NA	NA	NA	NA	NA	NA	NA	NA	642.2379827997647	['right', 'right', 'left', 'left', 'left', 'left']	[5.174845600035042, 7.071824400220066, 8.677230699919164, 10.755871700122952, 12.756255900021642, 15.745858500245959]	NA	NA	NA	NA	NA	NA	NA	ABF	001	2026-03-12_13h16.02.571	SS	2023.1.0	60.00888132617536	NA
[(1, 2), (0, 2), (2, 0), (0, 2), (2, 0), (0, 2), (0, 0), (0, 2)]	NA	NA	NA	NA	NA	NA	NA	NA	NA	NA	NA	NA	NA	NA	NA	NA	0	0	0	0	0	5	5	566	NA	NA	NA	NA	NA	NA	NA	NA	NA	NA	NA	NA	NA	NA	NA	NA	NA	NA	NA	NA	NA	NA	NA	NA	NA	NA	NA	NA	NA	NA	NA	NA	NA	659.2331968997605	['left', 'right', 'right', 'right', 'left', 'right']	[4.768011599779129, 6.6211463999934494, 8.677183999679983, 11.428971599787474, 13.189093699678779, 15.274356099776924]	NA	NA	NA	NA	NA	NA	NA	ABF	001	2026-03-12_13h16.02.571	SS	2023.1.0	60.00888132617536	NA
NA	NA	NA	NA	NA	NA	NA	NA	NA	NA	NA	NA	NA	NA	NA	NA	NA	0	0	0	0	NA	NA	NA	NA	NA	NA	NA	NA	NA	NA	NA	NA	NA	NA	NA	NA	NA	NA	NA	NA	NA	NA	NA	NA	NA	NA	NA	NA	NA	NA	NA	NA	NA	NA	NA	NA	NA	NA	NA	NA	NA	NA	NA	NA	NA	NA	NA	ABF	001	2026-03-12_13h16.02.571	SS	2023.1.0	60.00888132617536	NA
[(2, 2), (0, 2), (0, 1), (0, 2), (0, 1), (1, 1), (1, 0), (2, 1)]	NA	NA	NA	NA	NA	NA	NA	NA	NA	NA	NA	NA	NA	NA	NA	NA	1	0	1	0	0	0	0	153	NA	NA	NA	NA	NA	NA	NA	NA	NA	NA	NA	NA	NA	NA	NA	NA	NA	NA	NA	NA	NA	NA	NA	NA	NA	NA	NA	NA	NA	NA	NA	NA	NA	681.0837138001807	['left', 'right', 'left', 'left', 'left']	[4.765053199604154, 7.543806999921799, 10.794072199612856, 12.718232699669898, 14.718551599886268]	NA	NA	NA	NA	NA	NA	NA	ABF	001	2026-03-12_13h16.02.571	SS	2023.1.0	60.00888132617536	NA
[(1, 0), (2, 2), (0, 2), (2, 2), (1, 1), (2, 1), (2, 1), (2, 1)]	NA	NA	NA	NA	NA	NA	NA	NA	NA	NA	NA	NA	NA	NA	NA	NA	1	0	1	0	0	1	1	9	NA	NA	NA	NA	NA	NA	NA	NA	NA	NA	NA	NA	NA	NA	NA	NA	NA	NA	NA	NA	NA	NA	NA	NA	NA	NA	NA	NA	NA	NA	NA	NA	NA	698.0945092998445	['left', 'right', 'left', 'left', 'left', 'right']	[4.771321199834347, 6.803517200052738, 8.68251879978925, 12.006178299896419, 12.742360000032932, 14.532606499735266]	NA	NA	NA	NA	NA	NA	NA	ABF	001	2026-03-12_13h16.02.571	SS	2023.1.0	60.00888132617536	NA
[(0, 0), (0, 2), (1, 2), (0, 2), (2, 1), (1, 0), (0, 2), (1, 0)]	NA	NA	NA	NA	NA	NA	NA	NA	NA	NA	NA	NA	NA	NA	NA	NA	1	0	1	0	0	2	2	471	NA	NA	NA	NA	NA	NA	NA	NA	NA	NA	NA	NA	NA	NA	NA	NA	NA	NA	NA	NA	NA	NA	NA	NA	NA	NA	NA	NA	NA	NA	NA	NA	NA	715.0920516997576	['left', 'right', 'left', 'left', 'right']	[4.834707899484783, 6.676948699634522, 8.615381999872625, 13.468811099883169, 14.858165199868381]	NA	NA	NA	NA	NA	NA	NA	ABF	001	2026-03-12_13h16.02.571	SS	2023.1.0	60.00888132617536	NA
[(0, 2), (2, 0), (0, 2), (1, 1), (0, 2), (2, 1), (2, 1), (2, 0)]	NA	NA	NA	NA	NA	NA	NA	NA	NA	NA	NA	NA	NA	NA	NA	NA	1	0	1	0	0	3	3	594	NA	NA	NA	NA	NA	NA	NA	NA	NA	NA	NA	NA	NA	NA	NA	NA	NA	NA	NA	NA	NA	NA	NA	NA	NA	NA	NA	NA	NA	NA	NA	NA	NA	732.0758495000191	['right', 'left', 'right', 'left', 'right', 'left']	[4.8699092995375395, 7.061300899833441, 9.332507699728012, 11.155827699694782, 13.615970699582249, 15.453908099792898]	NA	NA	NA	NA	NA	NA	NA	ABF	001	2026-03-12_13h16.02.571	SS	2023.1.0	60.00888132617536	NA
[(2, 0), (0, 0), (2, 1), (0, 1), (0, 0), (0, 1), (1, 1), (0, 1)]	NA	NA	NA	NA	NA	NA	NA	NA	NA	NA	NA	NA	NA	NA	NA	NA	1	0	1	0	0	4	4	609	NA	NA	NA	NA	NA	NA	NA	NA	NA	NA	NA	NA	NA	NA	NA	NA	NA	NA	NA	NA	NA	NA	NA	NA	NA	NA	NA	NA	NA	NA	NA	NA	NA	749.0744762001559	['left', 'left', 'left', 'right', 'left']	[4.755223899614066, 7.3113304995931685, 9.220445499755442, 10.973346899729222, 12.955610399600118]	NA	NA	NA	NA	NA	NA	NA	ABF	001	2026-03-12_13h16.02.571	SS	2023.1.0	60.00888132617536	NA
[(1, 1), (2, 1), (1, 1), (1, 0), (2, 1), (1, 0), (2, 1), (0, 2)]	NA	NA	NA	NA	NA	NA	NA	NA	NA	NA	NA	NA	NA	NA	NA	NA	1	0	1	0	0	5	5	241	NA	NA	NA	NA	NA	NA	NA	NA	NA	NA	NA	NA	NA	NA	NA	NA	NA	NA	NA	NA	NA	NA	NA	NA	NA	NA	NA	NA	NA	NA	NA	NA	NA	766.085042799823	['right', 'left', 'right', 'right', 'right', 'left']	[4.876807899679989, 6.9049937995150685, 8.570249199867249, 10.647393599618226, 13.864401399623603, 14.932362699881196]	NA	NA	NA	NA	NA	NA	NA	ABF	001	2026-03-12_13h16.02.571	SS	2023.1.0	60.00888132617536	NA
NA	NA	NA	NA	NA	NA	NA	NA	NA	NA	NA	NA	NA	NA	NA	NA	NA	1	0	1	0	NA	NA	NA	NA	NA	NA	NA	NA	NA	NA	NA	NA	NA	NA	NA	NA	NA	NA	NA	NA	NA	NA	NA	NA	NA	NA	NA	NA	NA	NA	NA	NA	NA	NA	NA	NA	NA	NA	NA	NA	NA	NA	NA	NA	NA	NA	NA	ABF	001	2026-03-12_13h16.02.571	SS	2023.1.0	60.00888132617536	NA
[(0, 1), (0, 2), (0, 0), (0, 1), (1, 2), (0, 0), (2, 1), (1, 1), (2, 2)]	NA	NA	NA	NA	NA	NA	NA	NA	NA	NA	NA	NA	NA	NA	NA	NA	NA	NA	NA	NA	NA	NA	NA	NA	0	0	0	0	0	0	0	667	NA	NA	NA	NA	NA	NA	NA	NA	NA	NA	NA	NA	786.8684641998261	NA	NA	NA	NA	NA	NA	NA	NA	NA	NA	NA	NA	NA	NA	NA	790.9356745998375	['right', 'left', 'right', 'left', 'left', 'left']	[6.965312300249934, 9.400964300148189, 10.862706699874252, 13.485918700229377, 15.294996600132436, 17.342188899870962]	NA	NA	NA	NA	ABF	001	2026-03-12_13h16.02.571	SS	2023.1.0	60.00888132617536	NA
[(2, 1), (2, 0), (1, 2), (0, 1), (0, 2), (1, 2), (1, 0), (2, 2), (1, 2)]	NA	NA	NA	NA	NA	NA	NA	NA	NA	NA	NA	NA	NA	NA	NA	NA	NA	NA	NA	NA	NA	NA	NA	NA	0	0	0	0	0	1	1	15	NA	NA	NA	NA	NA	NA	NA	NA	NA	NA	NA	NA	NA	NA	NA	NA	NA	NA	NA	NA	NA	NA	NA	NA	NA	NA	NA	NA	809.9326542001218	['left', 'left', 'right', 'left', 'left', 'right']	[6.9778450997546315, 9.100025899708271, 11.288342999760062, 13.609426299575716, 14.833380399737507, 17.07303009973839]	NA	NA	NA	NA	ABF	001	2026-03-12_13h16.02.571	SS	2023.1.0	60.00888132617536	NA
[(0, 1), (2, 0), (0, 1), (1, 1), (0, 2), (0, 1), (1, 0), (0, 2), (1, 1)]	NA	NA	NA	NA	NA	NA	NA	NA	NA	NA	NA	NA	NA	NA	NA	NA	NA	NA	NA	NA	NA	NA	NA	NA	0	0	0	0	0	2	2	83	NA	NA	NA	NA	NA	NA	NA	NA	NA	NA	NA	NA	NA	NA	NA	NA	NA	NA	NA	NA	NA	NA	NA	NA	NA	NA	NA	NA	828.9429717999883	['left', 'left', 'right', 'left', 'right', 'right']	[7.3437018995173275, 8.964824899565428, 10.726885899435729, 12.696038999594748, 14.549187299795449, 16.73138939961791]	NA	NA	NA	NA	ABF	001	2026-03-12_13h16.02.571	SS	2023.1.0	60.00888132617536	NA
[(2, 2), (0, 2), (1, 2), (2, 0), (0, 2), (1, 2), (0, 2), (2, 1), (0, 2)]	NA	NA	NA	NA	NA	NA	NA	NA	NA	NA	NA	NA	NA	NA	NA	NA	NA	NA	NA	NA	NA	NA	NA	NA	0	0	0	0	0	3	3	584	NA	NA	NA	NA	NA	NA	NA	NA	NA	NA	NA	NA	NA	NA	NA	NA	NA	NA	NA	NA	NA	NA	NA	NA	NA	NA	NA	NA	847.9403050998226	['left', 'right', 'right', 'left', 'left', 'right']	[6.652541699819267, 9.618586899712682, 10.831991899758577, 12.906351099722087, 14.916685099713504, 17.137663699686527]	NA	NA	NA	NA	ABF	001	2026-03-12_13h16.02.571	SS	2023.1.0	60.00888132617536	NA
[(0, 0), (0, 2), (2, 2), (2, 0), (2, 1), (2, 2), (0, 0), (2, 2), (2, 2)]	NA	NA	NA	NA	NA	NA	NA	NA	NA	NA	NA	NA	NA	NA	NA	NA	NA	NA	NA	NA	NA	NA	NA	NA	0	0	0	0	0	4	4	112	NA	NA	NA	NA	NA	NA	NA	NA	NA	NA	NA	NA	NA	NA	NA	NA	NA	NA	NA	NA	NA	NA	NA	NA	NA	NA	NA	NA	866.9253047998063	['left', 'left', 'right', 'left', 'left', 'right']	[9.160568200051785, 9.35567650012672, 11.140949300024658, 12.84615179989487, 15.527308399789035, 16.60473830020055]	NA	NA	NA	NA	ABF	001	2026-03-12_13h16.02.571	SS	2023.1.0	60.00888132617536	NA
[(1, 2), (2, 0), (1, 1), (1, 2), (1, 2), (0, 0), (0, 0), (2, 0), (0, 0)]	NA	NA	NA	NA	NA	NA	NA	NA	NA	NA	NA	NA	NA	NA	NA	NA	NA	NA	NA	NA	NA	NA	NA	NA	0	0	0	0	0	5	5	243	NA	NA	NA	NA	NA	NA	NA	NA	NA	NA	NA	NA	NA	NA	NA	NA	NA	NA	NA	NA	NA	NA	NA	NA	NA	NA	NA	NA	885.9350487999618	['right', 'left', 'left', 'left', 'left', 'left']	[6.883085099980235, 9.653214099816978, 10.73433559993282, 13.354231500066817, 15.933692499995232, 16.623460500035435]	NA	NA	NA	NA	ABF	001	2026-03-12_13h16.02.571	SS	2023.1.0	60.00888132617536	NA
NA	NA	NA	NA	NA	NA	NA	NA	NA	NA	NA	NA	NA	NA	NA	NA	NA	NA	NA	NA	NA	NA	NA	NA	NA	0	0	0	0	NA	NA	NA	NA	NA	NA	NA	NA	NA	NA	NA	NA	NA	NA	NA	NA	NA	NA	NA	NA	NA	NA	NA	NA	NA	NA	NA	NA	NA	NA	NA	NA	NA	NA	NA	NA	NA	NA	NA	ABF	001	2026-03-12_13h16.02.571	SS	2023.1.0	60.00888132617536	NA
[(2, 0), (1, 2), (1, 1), (2, 1), (1, 2), (1, 1), (2, 0), (0, 0), (2, 0)]	NA	NA	NA	NA	NA	NA	NA	NA	NA	NA	NA	NA	NA	NA	NA	NA	NA	NA	NA	NA	NA	NA	NA	NA	1	0	1	0	0	0	0	614	NA	NA	NA	NA	NA	NA	NA	NA	NA	NA	NA	NA	NA	NA	NA	NA	NA	NA	NA	NA	NA	NA	NA	NA	NA	NA	NA	NA	906.8321905001068	['left', 'right', 'right', 'left', 'left', 'left']	[6.818664100021124, 9.279845099896193, 11.606368199922144, 13.06673080008477, 14.85209839977324, 17.43121219985187]	NA	NA	NA	NA	ABF	001	2026-03-12_13h16.02.571	SS	2023.1.0	60.00888132617536	NA
[(2, 2), (1, 1), (1, 0), (2, 2), (1, 1), (0, 2), (1, 1), (1, 1), (1, 2)]	NA	NA	NA	NA	NA	NA	NA	NA	NA	NA	NA	NA	NA	NA	NA	NA	NA	NA	NA	NA	NA	NA	NA	NA	1	0	1	0	0	1	1	94	NA	NA	NA	NA	NA	NA	NA	NA	NA	NA	NA	NA	NA	NA	NA	NA	NA	NA	NA	NA	NA	NA	NA	NA	NA	NA	NA	NA	925.7975840000436	['right', 'left', 'right', 'right', 'left']	[7.900087499991059, 10.599345600232482, 12.911462800111622, 14.844569700304419, 16.876411700155586]	NA	NA	NA	NA	ABF	001	2026-03-12_13h16.02.571	SS	2023.1.0	60.00888132617536	NA
[(2, 0), (0, 2), (1, 1), (0, 1), (0, 2), (1, 1), (1, 0), (0, 0), (2, 2)]	NA	NA	NA	NA	NA	NA	NA	NA	NA	NA	NA	NA	NA	NA	NA	NA	NA	NA	NA	NA	NA	NA	NA	NA	1	0	1	0	0	2	2	640	NA	NA	NA	NA	NA	NA	NA	NA	NA	NA	NA	NA	NA	NA	NA	NA	NA	NA	NA	NA	NA	NA	NA	NA	NA	NA	NA	NA	944.814804200083	['left', 'left', 'right', 'left', 'left', 'left']	[7.170016299933195, 9.76751759974286, 10.58760580001399, 12.989316400140524, 15.202978299930692, 17.636047299951315]	NA	NA	NA	NA	ABF	001	2026-03-12_13h16.02.571	SS	2023.1.0	60.00888132617536	NA
[(1, 1), (0, 1), (0, 1), (2, 1), (0, 1), (2, 0), (2, 0), (0, 2), (2, 0)]	NA	NA	NA	NA	NA	NA	NA	NA	NA	NA	NA	NA	NA	NA	NA	NA	NA	NA	NA	NA	NA	NA	NA	NA	1	0	1	0	0	3	3	483	NA	NA	NA	NA	NA	NA	NA	NA	NA	NA	NA	NA	NA	NA	NA	NA	NA	NA	NA	NA	NA	NA	NA	NA	NA	NA	NA	NA	963.8098498000764	['left', 'right', 'left', 'left', 'left', 'right']	[7.408087200019509, 9.980205399915576, 10.84621510002762, 12.925705300178379, 15.286925499793142, 16.636199799831957]	NA	NA	NA	NA	ABF	001	2026-03-12_13h16.02.571	SS	2023.1.0	60.00888132617536	NA
[(0, 0), (2, 2), (2, 0), (1, 0), (1, 0), (0, 1), (1, 0), (1, 0), (1, 1)]	NA	NA	NA	NA	NA	NA	NA	NA	NA	NA	NA	NA	NA	NA	NA	NA	NA	NA	NA	NA	NA	NA	NA	NA	1	0	1	0	0	4	4	271	NA	NA	NA	NA	NA	NA	NA	NA	NA	NA	NA	NA	NA	NA	NA	NA	NA	NA	NA	NA	NA	NA	NA	NA	NA	NA	NA	NA	982.821713899728	['left', 'left', 'left', 'right', 'right', 'left']	[6.971670099999756, 8.977154199965298, 11.66366960015148, 12.605792299844325, 14.612912300042808, 17.22814609995112]	NA	NA	NA	NA	ABF	001	2026-03-12_13h16.02.571	SS	2023.1.0	60.00888132617536	NA
[(2, 2), (2, 0), (0, 0), (0, 1), (2, 1), (0, 0), (2, 2), (2, 1), (1, 1)]	NA	NA	NA	NA	NA	NA	NA	NA	NA	NA	NA	NA	NA	NA	NA	NA	NA	NA	NA	NA	NA	NA	NA	NA	1	0	1	0	0	5	5	447	NA	NA	NA	NA	NA	NA	NA	NA	NA	NA	NA	NA	NA	NA	NA	NA	NA	NA	NA	NA	NA	NA	NA	NA	NA	NA	NA	NA	1001.8054323000832	['left', 'left', 'right', 'left', 'right', 'left']	[6.630292399786413, 9.357629799749702, 10.939184099901468, 12.95441549969837, 15.246208099648356, 17.05369529966265]	NA	NA	NA	NA	ABF	001	2026-03-12_13h16.02.571	SS	2023.1.0	60.00888132617536	NA
NA	NA	NA	NA	NA	NA	NA	NA	NA	NA	NA	NA	NA	NA	NA	NA	NA	NA	NA	NA	NA	NA	NA	NA	NA	1	0	1	0	NA	NA	NA	NA	NA	NA	NA	NA	NA	NA	NA	NA	NA	NA	NA	NA	NA	NA	NA	NA	NA	NA	NA	NA	NA	NA	NA	NA	NA	NA	NA	NA	NA	NA	NA	NA	NA	NA	NA	ABF	001	2026-03-12_13h16.02.571	SS	2023.1.0	60.00888132617536	NA
[(1, 2), (1, 1), (1, 1), (0, 0), (0, 1), (1, 0), (1, 1), (0, 0), (1, 2), (1, 2)]	NA	NA	NA	NA	NA	NA	NA	NA	NA	NA	NA	NA	NA	NA	NA	NA	NA	NA	NA	NA	NA	NA	NA	NA	NA	NA	NA	NA	NA	NA	NA	NA	0	0	0	0	0	0	0	381	NA	NA	NA	NA	NA	NA	NA	NA	1023.6204066998324	NA	NA	NA	NA	NA	NA	NA	NA	NA	NA	NA	NA	NA	NA	1026.6988475001417	1027.6855469997972	['left', 'left', 'right', 'right', 'left', 'left']	[8.80322719970718, 10.977403500117362, 12.632540199905634, 14.636771799996495, 17.414830700028688, 19.527729999739677]	ABF	001	2026-03-12_13h16.02.571	SS	2023.1.0	60.00888132617536	NA
[(1, 1), (2, 1), (1, 2), (2, 2), (2, 1), (0, 1), (1, 2), (2, 0), (2, 1), (1, 1)]	NA	NA	NA	NA	NA	NA	NA	NA	NA	NA	NA	NA	NA	NA	NA	NA	NA	NA	NA	NA	NA	NA	NA	NA	NA	NA	NA	NA	NA	NA	NA	NA	0	0	0	0	0	1	1	167	NA	NA	NA	NA	NA	NA	NA	NA	NA	NA	NA	NA	NA	NA	NA	NA	NA	NA	NA	NA	NA	NA	NA	NA	1048.695958599914	['right', 'left', 'left', 'left', 'left', 'right']	[9.004265999887139, 11.162625900004059, 13.620187599677593, 14.866282199975103, 17.326651599723846, 18.53615489974618]	ABF	001	2026-03-12_13h16.02.571	SS	2023.1.0	60.00888132617536	NA
[(0, 1), (2, 1), (1, 2), (1, 2), (0, 2), (1, 0), (1, 2), (2, 0), (0, 2), (2, 2)]	NA	NA	NA	NA	NA	NA	NA	NA	NA	NA	NA	NA	NA	NA	NA	NA	NA	NA	NA	NA	NA	NA	NA	NA	NA	NA	NA	NA	NA	NA	NA	NA	0	0	0	0	0	2	2	257	NA	NA	NA	NA	NA	NA	NA	NA	NA	NA	NA	NA	NA	NA	NA	NA	NA	NA	NA	NA	NA	NA	NA	NA	1069.6928300997242	['left', 'left', 'right', 'left', 'left', 'left']	[8.61272790003568, 11.149994499981403, 12.715855500195175, 14.814231799915433, 16.94186310004443, 18.750044700223953]	ABF	001	2026-03-12_13h16.02.571	SS	2023.1.0	60.00888132617536	NA
[(1, 1), (0, 1), (0, 2), (2, 0), (1, 0), (0, 1), (1, 2), (1, 2), (1, 2), (0, 1)]	NA	NA	NA	NA	NA	NA	NA	NA	NA	NA	NA	NA	NA	NA	NA	NA	NA	NA	NA	NA	NA	NA	NA	NA	NA	NA	NA	NA	NA	NA	NA	NA	0	0	0	0	0	3	3	578	NA	NA	NA	NA	NA	NA	NA	NA	NA	NA	NA	NA	NA	NA	NA	NA	NA	NA	NA	NA	NA	NA	NA	NA	1090.6899147001095	['left', 'right', 'left', 'left', 'left']	[9.093968600034714, 10.8581094997935, 12.726309500169009, 15.030429900158197, 16.465924799907953]	ABF	001	2026-03-12_13h16.02.571	SS	2023.1.0	60.00888132617536	NA
[(2, 2), (1, 2), (2, 2), (1, 2), (1, 1), (2, 0), (0, 1), (1, 2), (0, 2), (2, 0)]	NA	NA	NA	NA	NA	NA	NA	NA	NA	NA	NA	NA	NA	NA	NA	NA	NA	NA	NA	NA	NA	NA	NA	NA	NA	NA	NA	NA	NA	NA	NA	NA	0	0	0	0	0	4	4	462	NA	NA	NA	NA	NA	NA	NA	NA	NA	NA	NA	NA	NA	NA	NA	NA	NA	NA	NA	NA	NA	NA	NA	NA	1111.7038247999735	['left', 'left', 'left', 'left', 'left']	[8.52813129965216, 10.995911799836904, 13.170340199954808, 16.068417499773204, 16.614879599772394]	ABF	001	2026-03-12_13h16.02.571	SS	2023.1.0	60.00888132617536	NA
[(1, 0), (1, 1), (1, 1), (0, 2), (2, 0), (1, 1), (2, 0), (0, 0), (2, 2), (1, 1)]	NA	NA	NA	NA	NA	NA	NA	NA	NA	NA	NA	NA	NA	NA	NA	NA	NA	NA	NA	NA	NA	NA	NA	NA	NA	NA	NA	NA	NA	NA	NA	NA	0	0	0	0	0	5	5	614	NA	NA	NA	NA	NA	NA	NA	NA	NA	NA	NA	NA	NA	NA	NA	NA	NA	NA	NA	NA	NA	NA	NA	NA	1132.6878963001072	['left', 'right', 'left', 'left', 'left', 'right']	[8.950910000130534, 11.110139499884099, 12.783533100038767, 14.717916199937463, 16.84076979989186, 19.127529399935156]	ABF	001	2026-03-12_13h16.02.571	SS	2023.1.0	60.00888132617536	NA
NA	NA	NA	NA	NA	NA	NA	NA	NA	NA	NA	NA	NA	NA	NA	NA	NA	NA	NA	NA	NA	NA	NA	NA	NA	NA	NA	NA	NA	NA	NA	NA	NA	0	0	0	0	NA	NA	NA	NA	NA	NA	NA	NA	NA	NA	NA	NA	NA	NA	NA	NA	NA	NA	NA	NA	NA	NA	NA	NA	NA	NA	NA	NA	NA	NA	NA	ABF	001	2026-03-12_13h16.02.571	SS	2023.1.0	60.00888132617536	NA
[(2, 1), (0, 2), (1, 1), (1, 2), (0, 2), (1, 2), (0, 0), (1, 2), (0, 2), (0, 2)]	NA	NA	NA	NA	NA	NA	NA	NA	NA	NA	NA	NA	NA	NA	NA	NA	NA	NA	NA	NA	NA	NA	NA	NA	NA	NA	NA	NA	NA	NA	NA	NA	1	0	1	0	0	0	0	543	NA	NA	NA	NA	NA	NA	NA	NA	NA	NA	NA	NA	NA	NA	NA	NA	NA	NA	NA	NA	NA	NA	NA	NA	1160.9468756997958	['left', 'left', 'left', 'right', 'left', 'left']	[8.868866099976003, 10.696262599900365, 12.621453899890184, 15.286667800042778, 17.02202029991895, 18.577205799985677]	ABF	001	2026-03-12_13h16.02.571	SS	2023.1.0	60.00888132617536	NA
[(1, 1), (2, 2), (0, 2), (0, 1), (2, 1), (2, 2), (0, 1), (0, 2), (0, 0), (2, 2)]	NA	NA	NA	NA	NA	NA	NA	NA	NA	NA	NA	NA	NA	NA	NA	NA	NA	NA	NA	NA	NA	NA	NA	NA	NA	NA	NA	NA	NA	NA	NA	NA	1	0	1	0	0	1	1	412	NA	NA	NA	NA	NA	NA	NA	NA	NA	NA	NA	NA	NA	NA	NA	NA	NA	NA	NA	NA	NA	NA	NA	NA	1181.931368699763	['left', 'right', 'left', 'right']	[8.655833200085908, 11.472794599831104, 16.63985039992258, 18.976808100007474]	ABF	001	2026-03-12_13h16.02.571	SS	2023.1.0	60.00888132617536	NA
[(1, 0), (1, 0), (2, 2), (1, 2), (1, 2), (1, 0), (1, 0), (1, 2), (1, 1), (2, 1)]	NA	NA	NA	NA	NA	NA	NA	NA	NA	NA	NA	NA	NA	NA	NA	NA	NA	NA	NA	NA	NA	NA	NA	NA	NA	NA	NA	NA	NA	NA	NA	NA	1	0	1	0	0	2	2	253	NA	NA	NA	NA	NA	NA	NA	NA	NA	NA	NA	NA	NA	NA	NA	NA	NA	NA	NA	NA	NA	NA	NA	NA	1202.9410508000292	['left', 'left', 'left', 'right', 'right']	[9.838906600140035, 13.048089399933815, 15.247260900214314, 16.576406999956816, 18.89553049998358]	ABF	001	2026-03-12_13h16.02.571	SS	2023.1.0	60.00888132617536	NA
[(1, 0), (2, 1), (0, 1), (0, 2), (1, 0), (2, 2), (0, 1), (1, 1), (2, 1), (0, 0)]	NA	NA	NA	NA	NA	NA	NA	NA	NA	NA	NA	NA	NA	NA	NA	NA	NA	NA	NA	NA	NA	NA	NA	NA	NA	NA	NA	NA	NA	NA	NA	NA	1	0	1	0	0	3	3	220	NA	NA	NA	NA	NA	NA	NA	NA	NA	NA	NA	NA	NA	NA	NA	NA	NA	NA	NA	NA	NA	NA	NA	NA	1223.9046656000428	['left', 'right', 'left', 'left', 'left']	[9.177700899541378, 9.461657699663192, 10.89136889996007, 15.181550999637693, 18.810208099894226]	ABF	001	2026-03-12_13h16.02.571	SS	2023.1.0	60.00888132617536	NA
[(1, 0), (2, 0), (1, 0), (2, 0), (1, 0), (2, 2), (1, 0), (1, 0), (1, 0), (1, 0)]	NA	NA	NA	NA	NA	NA	NA	NA	NA	NA	NA	NA	NA	NA	NA	NA	NA	NA	NA	NA	NA	NA	NA	NA	NA	NA	NA	NA	NA	NA	NA	NA	1	0	1	0	0	4	4	154	NA	NA	NA	NA	NA	NA	NA	NA	NA	NA	NA	NA	NA	NA	NA	NA	NA	NA	NA	NA	NA	NA	NA	NA	1244.9225522000345	['right', 'left', 'right', 'left', 'left']	[8.73319279961288, 10.569339499808848, 13.831456799991429, 16.732876299880445, 18.707161800004542]	ABF	001	2026-03-12_13h16.02.571	SS	2023.1.0	60.00888132617536	NA
[(1, 2), (0, 0), (0, 0), (1, 0), (1, 2), (0, 0), (1, 0), (1, 2), (2, 2), (2, 1)]	NA	NA	NA	NA	NA	NA	NA	NA	NA	NA	NA	NA	NA	NA	NA	NA	NA	NA	NA	NA	NA	NA	NA	NA	NA	NA	NA	NA	NA	NA	NA	NA	1	0	1	0	0	5	5	307	NA	NA	NA	NA	NA	NA	NA	NA	NA	NA	NA	NA	NA	NA	NA	NA	NA	NA	NA	NA	NA	NA	NA	NA	1265.9323506997898	['right', 'right', 'right', 'right', 'left', 'left']	[8.825905799865723, 11.234456699807197, 12.89339549979195, 14.478386899922043, 17.125995699781924, 18.94976540002972]	ABF	001	2026-03-12_13h16.02.571	SS	2023.1.0	60.00888132617536	NA
NA	NA	NA	NA	NA	NA	NA	NA	NA	NA	NA	NA	NA	NA	NA	NA	NA	NA	NA	NA	NA	NA	NA	NA	NA	NA	NA	NA	NA	NA	NA	NA	NA	1	0	1	0	NA	NA	NA	NA	NA	NA	NA	NA	NA	NA	NA	NA	NA	NA	NA	NA	NA	NA	NA	NA	NA	NA	NA	NA	NA	NA	NA	NA	NA	NA	NA	ABF	001	2026-03-12_13h16.02.571	SS	2023.1.0	60.00888132617536	NA
