imagefile	stimfile	corrAns	MRdir	angle	training.thisRepN	training.thisTrialN	training.thisN	training.thisIndex	mentalrot_trials.thisRepN	mentalrot_trials.thisTrialN	mentalrot_trials.thisN	mentalrot_trials.thisIndex	blank.started	mr_answ_2.started	mr_answ_2.keys	mr_answ_2.corr	mr_answ_2.rt	blank.stopped	mr_answ.started	mr_answ.keys	mr_answ.corr	mr_answ.rt	byebye_text.started	participant	session	date	expName	psychopyVersion	frameRate	...31
mr_images/12_b.png	mr_images/12_a_z_135.png	right	cw	135	0	0	0	68	NA	NA	NA	NA	182.7397985998541	183.2609916999936	left	0	3.880702600348741	NA	NA	NA	NA	NA	NA	ABF	001	2026-03-12_14h07.30.665	MR	2023.1.0	59.906713253196834	NA
mr_images/5_a.png	mr_images/5_a_z_270.png	left	ccw	90	0	1	1	127	NA	NA	NA	NA	187.17261660005897	187.75584599981084	right	0	4.227495499886572	187.75584599981084	NA	NA	NA	NA	NA	ABF	001	2026-03-12_14h07.30.665	MR	2023.1.0	59.906713253196834	NA
mr_images/12_a.png	mr_images/12_a_z_90.png	left	cw	90	0	2	2	53	NA	NA	NA	NA	192.00512070022523	192.6055792002007	left	1	2.679702099878341	192.6055792002007	NA	NA	NA	NA	NA	ABF	001	2026-03-12_14h07.30.665	MR	2023.1.0	59.906713253196834	NA
mr_images/12_b.png	mr_images/12_a_z_90.png	right	cw	90	0	3	3	64	NA	NA	NA	NA	195.30475590005517	195.8379965000786	left	0	2.4030197001993656	195.8379965000786	NA	NA	NA	NA	NA	ABF	001	2026-03-12_14h07.30.665	MR	2023.1.0	59.906713253196834	NA
mr_images/6_b.png	mr_images/6_b_z_315.png	left	ccw	45	0	4	4	159	NA	NA	NA	NA	198.2706352001987	198.82057880004868	right	0	3.039403600152582	198.82057880004868	NA	NA	NA	NA	NA	ABF	001	2026-03-12_14h07.30.665	MR	2023.1.0	59.906713253196834	NA
mr_images/6_a.png	mr_images/6_a_z_135.png	left	cw	135	NA	NA	NA	NA	0	0	0	153	203.43690400011835	NA	NA	NA	NA	NA	203.91990619990975	None	0	NA	NA	ABF	001	2026-03-12_14h07.30.665	MR	2023.1.0	59.906713253196834	NA
mr_images/1_b.png	mr_images/1_a_z_45.png	right	cw	45	NA	NA	NA	NA	0	1	1	12	208.8695418001153	NA	NA	NA	NA	NA	209.46907950006425	right	1	3.893129600211978	NA	ABF	001	2026-03-12_14h07.30.665	MR	2023.1.0	59.906713253196834	NA
mr_images/7_a.png	mr_images/7_a_z_225.png	left	ccw	135	NA	NA	NA	NA	0	2	2	179	213.3855519001372	NA	NA	NA	NA	213.9689103001729	213.9689103001729	left	1	1.868972700089216	NA	ABF	001	2026-03-12_14h07.30.665	MR	2023.1.0	59.906713253196834	NA
mr_images/1_b.png	mr_images/1_a_z_135.png	right	cw	135	NA	NA	NA	NA	0	3	3	20	215.8686600001529	NA	NA	NA	NA	216.4222781998105	216.4222781998105	right	1	2.4779352000914514	NA	ABF	001	2026-03-12_14h07.30.665	MR	2023.1.0	59.906713253196834	NA
mr_images/12_b.png	mr_images/12_a_z_135.png	right	cw	135	NA	NA	NA	NA	0	4	4	68	218.92222250020131	NA	NA	NA	NA	219.4680782998912	219.4680782998912	left	0	3.379187600221485	NA	ABF	001	2026-03-12_14h07.30.665	MR	2023.1.0	59.906713253196834	NA
mr_images/5_a.png	mr_images/5_b_z_315.png	right	ccw	45	NA	NA	NA	NA	0	5	5	122	222.8681030999869	NA	NA	NA	NA	223.43421459989625	223.43421459989625	left	0	3.1870062998495996	NA	ABF	001	2026-03-12_14h07.30.665	MR	2023.1.0	59.906713253196834	NA
mr_images/7_a.png	mr_images/7_a_z_135.png	left	cw	135	NA	NA	NA	NA	0	6	6	177	226.65037980023772	NA	NA	NA	NA	227.20239959983155	227.20239959983155	right	0	4.600425300188363	NA	ABF	001	2026-03-12_14h07.30.665	MR	2023.1.0	59.906713253196834	NA
mr_images/5_b.png	mr_images/5_b_z_135.png	left	cw	135	NA	NA	NA	NA	0	7	7	141	231.82032319996503	NA	NA	NA	NA	232.3996667000465	232.3996667000465	None	0	NA	NA	ABF	001	2026-03-12_14h07.30.665	MR	2023.1.0	59.906713253196834	NA
mr_images/4_a.png	mr_images/4_b_z_225.png	right	ccw	135	NA	NA	NA	NA	0	8	8	106	237.33236919995397	NA	NA	NA	NA	NA	237.93175880005583	left	0	4.722058699931949	NA	ABF	001	2026-03-12_14h07.30.665	MR	2023.1.0	59.906713253196834	NA
mr_images/6_a.png	mr_images/6_a_z_225.png	left	ccw	135	NA	NA	NA	NA	0	9	9	155	242.68152870004997	NA	NA	NA	NA	243.24838169990107	243.24838169990107	left	1	3.471976100001484	NA	ABF	001	2026-03-12_14h07.30.665	MR	2023.1.0	59.906713253196834	NA
mr_images/9_a.png	mr_images/9_b_z_315.png	right	ccw	45	NA	NA	NA	NA	0	10	10	194	246.7474385998212	NA	NA	NA	NA	247.3307849001139	247.3307849001139	left	0	2.594303200021386	NA	ABF	001	2026-03-12_14h07.30.665	MR	2023.1.0	59.906713253196834	NA
mr_images/5_a.png	mr_images/5_a_z_225.png	left	ccw	135	NA	NA	NA	NA	0	11	11	131	249.9467988000251	NA	NA	NA	NA	250.50214370014143	250.50214370014143	right	0	2.202955299988389	NA	ABF	001	2026-03-12_14h07.30.665	MR	2023.1.0	59.906713253196834	NA
mr_images/6_a.png	mr_images/6_b_z_270.png	right	ccw	90	NA	NA	NA	NA	0	12	12	150	252.7342007998377	NA	NA	NA	NA	253.3132799998857	253.3132799998857	left	0	4.398252900224179	NA	ABF	001	2026-03-12_14h07.30.665	MR	2023.1.0	59.906713253196834	NA
mr_images/11_a.png	mr_images/11_a_z_225.png	left	ccw	135	NA	NA	NA	NA	0	13	13	35	257.7290790998377	NA	NA	NA	NA	258.2790049999021	258.2790049999021	right	0	3.1212117997929454	NA	ABF	001	2026-03-12_14h07.30.665	MR	2023.1.0	59.906713253196834	NA
mr_images/11_b.png	mr_images/11_a_z_270.png	right	ccw	90	NA	NA	NA	NA	0	14	14	42	261.428913900163	NA	NA	NA	NA	262.01540970010683	262.01540970010683	left	0	2.2962330002337694	NA	ABF	001	2026-03-12_14h07.30.665	MR	2023.1.0	59.906713253196834	NA
mr_images/3_a.png	mr_images/3_b_z_270.png	right	ccw	90	NA	NA	NA	NA	0	15	15	78	264.33240710012615	NA	NA	NA	NA	264.91338679986075	264.91338679986075	left	0	2.8929538000375032	NA	ABF	001	2026-03-12_14h07.30.665	MR	2023.1.0	59.906713253196834	NA
mr_images/5_a.png	mr_images/5_a_z_45.png	left	cw	45	NA	NA	NA	NA	0	16	16	121	267.8321185000241	NA	NA	NA	NA	268.39456919999793	268.39456919999793	left	1	2.4809036003425717	NA	ABF	001	2026-03-12_14h07.30.665	MR	2023.1.0	59.906713253196834	NA
mr_images/9_a.png	mr_images/9_a_z_315.png	left	ccw	45	NA	NA	NA	NA	0	17	17	195	270.89429460000247	NA	NA	NA	NA	271.46085479995236	271.46085479995236	left	1	2.2543517001904547	NA	ABF	001	2026-03-12_14h07.30.665	MR	2023.1.0	59.906713253196834	NA
mr_images/6_b.png	mr_images/6_b_z_45.png	left	cw	45	NA	NA	NA	NA	0	18	18	157	273.74398879986256	NA	NA	NA	NA	274.31100500002503	274.31100500002503	right	0	2.9390132003463805	NA	ABF	001	2026-03-12_14h07.30.665	MR	2023.1.0	59.906713253196834	NA
mr_images/5_b.png	mr_images/5_a_z_135.png	right	cw	135	NA	NA	NA	NA	0	19	19	140	277.27669710014015	NA	NA	NA	NA	277.8432754999958	277.8432754999958	right	1	3.139606600161642	NA	ABF	001	2026-03-12_14h07.30.665	MR	2023.1.0	59.906713253196834	NA
mr_images/12_a.png	mr_images/12_a_z_225.png	left	ccw	135	NA	NA	NA	NA	0	20	20	59	281.0094146002084	NA	NA	NA	NA	281.57611750019714	281.57611750019714	left	1	3.0989820999093354	NA	ABF	001	2026-03-12_14h07.30.665	MR	2023.1.0	59.906713253196834	NA
mr_images/6_b.png	mr_images/6_a_z_135.png	right	cw	135	NA	NA	NA	NA	0	21	21	164	284.6922809998505	NA	NA	NA	NA	285.24217970017344	285.24217970017344	left	0	3.7553119002841417	NA	ABF	001	2026-03-12_14h07.30.665	MR	2023.1.0	59.906713253196834	NA
mr_images/5_b.png	mr_images/5_b_z_90.png	left	cw	90	NA	NA	NA	NA	0	22	22	137	289.02511439984664	NA	NA	NA	NA	289.59158919984475	289.59158919984475	left	1	3.458749100100249	NA	ABF	001	2026-03-12_14h07.30.665	MR	2023.1.0	59.906713253196834	NA
mr_images/5_b.png	mr_images/5_b_z_45.png	left	cw	45	NA	NA	NA	NA	0	23	23	133	293.074562900234	NA	NA	NA	NA	293.64067299989983	293.64067299989983	right	0	3.60078309988603	NA	ABF	001	2026-03-12_14h07.30.665	MR	2023.1.0	59.906713253196834	NA
mr_images/9_b.png	mr_images/9_a_z_225.png	right	ccw	135	NA	NA	NA	NA	0	24	24	214	297.27384509984404	NA	NA	NA	NA	297.85711999982595	297.85711999982595	right	1	3.305011000484228	NA	ABF	001	2026-03-12_14h07.30.665	MR	2023.1.0	59.906713253196834	NA
mr_images/6_a.png	mr_images/6_b_z_45.png	right	cw	45	NA	NA	NA	NA	0	25	25	144	301.1900587999262	NA	NA	NA	NA	301.7250537001528	301.7250537001528	right	1	2.878127499949187	NA	ABF	001	2026-03-12_14h07.30.665	MR	2023.1.0	59.906713253196834	NA
mr_images/4_a.png	mr_images/4_b_z_135.png	right	cw	135	NA	NA	NA	NA	0	26	26	104	304.6270344001241	NA	NA	NA	NA	305.1894626999274	305.1894626999274	left	0	3.131046500056982	NA	ABF	001	2026-03-12_14h07.30.665	MR	2023.1.0	59.906713253196834	NA
mr_images/3_b.png	mr_images/3_b_z_315.png	left	ccw	45	NA	NA	NA	NA	0	27	27	87	308.3390285000205	NA	NA	NA	NA	308.90679829986766	308.90679829986766	left	1	2.7099832999520004	NA	ABF	001	2026-03-12_14h07.30.665	MR	2023.1.0	59.906713253196834	NA
mr_images/12_a.png	mr_images/12_b_z_270.png	right	ccw	90	NA	NA	NA	NA	0	28	28	54	311.6385260000825	NA	NA	NA	NA	312.2051439001225	312.2051439001225	left	0	3.557371399831027	NA	ABF	001	2026-03-12_14h07.30.665	MR	2023.1.0	59.906713253196834	NA
mr_images/3_a.png	mr_images/3_a_z_225.png	left	ccw	135	NA	NA	NA	NA	0	29	29	83	315.7880358998664	NA	NA	NA	NA	NA	316.3564797998406	right	0	2.588986000046134	NA	ABF	001	2026-03-12_14h07.30.665	MR	2023.1.0	59.906713253196834	NA
mr_images/9_a.png	mr_images/9_a_z_270.png	left	ccw	90	NA	NA	NA	NA	0	30	30	199	318.9749691998586	NA	NA	NA	NA	319.53848210023716	319.53848210023716	right	0	4.668643199838698	NA	ABF	001	2026-03-12_14h07.30.665	MR	2023.1.0	59.906713253196834	NA
mr_images/5_a.png	mr_images/5_a_z_90.png	left	cw	90	NA	NA	NA	NA	0	31	31	125	324.22414930025116	NA	NA	NA	NA	324.78678900003433	324.78678900003433	right	0	2.9244957002811134	NA	ABF	001	2026-03-12_14h07.30.665	MR	2023.1.0	59.906713253196834	NA
mr_images/1_a.png	mr_images/1_a_z_90.png	left	cw	90	NA	NA	NA	NA	0	32	32	5	327.73631429998204	NA	NA	NA	NA	328.3195338002406	328.3195338002406	right	0	3.854954199865461	NA	ABF	001	2026-03-12_14h07.30.665	MR	2023.1.0	59.906713253196834	NA
mr_images/5_b.png	mr_images/5_a_z_45.png	right	cw	45	NA	NA	NA	NA	0	33	33	132	332.2023634002544	NA	NA	NA	NA	332.75227720011026	332.75227720011026	right	1	3.3012709999457	NA	ABF	001	2026-03-12_14h07.30.665	MR	2023.1.0	59.906713253196834	NA
mr_images/1_b.png	mr_images/1_a_z_315.png	right	ccw	45	NA	NA	NA	NA	0	34	34	14	336.08516759984195	NA	NA	NA	NA	336.6517463000491	336.6517463000491	left	0	3.4660578998737037	NA	ABF	001	2026-03-12_14h07.30.665	MR	2023.1.0	59.906713253196834	NA
mr_images/11_b.png	mr_images/11_a_z_45.png	right	cw	45	NA	NA	NA	NA	0	35	35	36	340.13468659995124	NA	NA	NA	NA	340.7014648998156	340.7014648998156	right	1	3.5847678002901375	NA	ABF	001	2026-03-12_14h07.30.665	MR	2023.1.0	59.906713253196834	NA
mr_images/6_b.png	mr_images/6_b_z_90.png	left	cw	90	NA	NA	NA	NA	0	36	36	161	344.31737020006403	NA	NA	NA	NA	344.8839869000949	344.8839869000949	right	0	3.4039028002880514	NA	ABF	001	2026-03-12_14h07.30.665	MR	2023.1.0	59.906713253196834	NA
mr_images/12_b.png	mr_images/12_b_z_315.png	left	ccw	45	NA	NA	NA	NA	0	37	37	63	348.3168379999697	NA	NA	NA	NA	348.88328200019896	348.88328200019896	left	1	3.3686731001362205	NA	ABF	001	2026-03-12_14h07.30.665	MR	2023.1.0	59.906713253196834	NA
mr_images/1_a.png	mr_images/1_b_z_225.png	right	ccw	135	NA	NA	NA	NA	0	38	38	10	352.28285579988733	NA	NA	NA	NA	352.83477149996907	352.83477149996907	right	1	2.364979099947959	NA	ABF	001	2026-03-12_14h07.30.665	MR	2023.1.0	59.906713253196834	NA
mr_images/9_a.png	mr_images/9_b_z_270.png	right	ccw	90	NA	NA	NA	NA	0	39	39	198	355.21584240021184	NA	NA	NA	NA	355.78251670021564	355.78251670021564	left	0	2.6341222999617457	NA	ABF	001	2026-03-12_14h07.30.665	MR	2023.1.0	59.906713253196834	NA
mr_images/9_b.png	mr_images/9_b_z_45.png	left	cw	45	NA	NA	NA	NA	0	40	40	205	358.4487284999341	NA	NA	NA	NA	359.0153935002163	359.0153935002163	right	0	2.136055000126362	NA	ABF	001	2026-03-12_14h07.30.665	MR	2023.1.0	59.906713253196834	NA
mr_images/3_a.png	mr_images/3_b_z_90.png	right	cw	90	NA	NA	NA	NA	0	41	41	76	361.18177720019594	NA	NA	NA	NA	361.74874729989097	361.74874729989097	right	1	2.9342631003819406	NA	ABF	001	2026-03-12_14h07.30.665	MR	2023.1.0	59.906713253196834	NA
mr_images/11_b.png	mr_images/11_a_z_225.png	right	ccw	135	NA	NA	NA	NA	0	42	42	46	364.71444769995287	NA	NA	NA	NA	365.25129419984296	365.25129419984296	right	1	2.7293434999883175	NA	ABF	001	2026-03-12_14h07.30.665	MR	2023.1.0	59.906713253196834	NA
mr_images/1_a.png	mr_images/1_a_z_225.png	left	ccw	135	NA	NA	NA	NA	0	43	43	11	368.00190650019795	NA	NA	NA	NA	368.5637317998335	368.5637317998335	right	0	3.3449862003326416	NA	ABF	001	2026-03-12_14h07.30.665	MR	2023.1.0	59.906713253196834	NA
mr_images/5_a.png	mr_images/5_b_z_135.png	right	cw	135	NA	NA	NA	NA	0	44	44	128	371.930236000102	NA	NA	NA	NA	372.48011490004137	372.48011490004137	right	1	3.004643600434065	NA	ABF	001	2026-03-12_14h07.30.665	MR	2023.1.0	59.906713253196834	NA
mr_images/6_b.png	mr_images/6_a_z_45.png	right	cw	45	NA	NA	NA	NA	0	45	45	156	375.5137889999896	NA	NA	NA	NA	376.0961382999085	376.0961382999085	right	1	3.4242862998507917	NA	ABF	001	2026-03-12_14h07.30.665	MR	2023.1.0	59.906713253196834	NA
mr_images/7_b.png	mr_images/7_b_z_90.png	left	cw	90	NA	NA	NA	NA	0	46	46	185	379.5458738999441	NA	NA	NA	NA	380.1302053998224	380.1302053998224	right	0	2.9456544001586735	NA	ABF	001	2026-03-12_14h07.30.665	MR	2023.1.0	59.906713253196834	NA
mr_images/7_b.png	mr_images/7_b_z_315.png	left	ccw	45	NA	NA	NA	NA	0	47	47	183	383.0953513002023	NA	NA	NA	NA	383.6620307001285	383.6620307001285	left	1	2.1560941003262997	NA	ABF	001	2026-03-12_14h07.30.665	MR	2023.1.0	59.906713253196834	NA
mr_images/4_a.png	mr_images/4_b_z_315.png	right	ccw	45	NA	NA	NA	NA	0	48	48	98	385.8449607002549	NA	NA	NA	NA	386.4115758999251	386.4115758999251	left	0	3.0353458002209663	NA	ABF	001	2026-03-12_14h07.30.665	MR	2023.1.0	59.906713253196834	NA
mr_images/7_b.png	mr_images/7_b_z_45.png	left	cw	45	NA	NA	NA	NA	0	49	49	181	389.47799699986354	NA	NA	NA	NA	390.0316194999032	390.0316194999032	right	0	2.052192300092429	NA	ABF	001	2026-03-12_14h07.30.665	MR	2023.1.0	59.906713253196834	NA
mr_images/9_a.png	mr_images/9_a_z_135.png	left	cw	135	NA	NA	NA	NA	0	50	50	201	392.114729099907	NA	NA	NA	NA	392.67771560000256	392.67771560000256	right	0	3.719229399692267	NA	ABF	001	2026-03-12_14h07.30.665	MR	2023.1.0	59.906713253196834	NA
mr_images/5_a.png	mr_images/5_b_z_45.png	right	cw	45	NA	NA	NA	NA	0	51	51	120	396.4268418001011	NA	NA	NA	NA	396.9766823998653	396.9766823998653	right	1	2.8785837003961205	NA	ABF	001	2026-03-12_14h07.30.665	MR	2023.1.0	59.906713253196834	NA
mr_images/9_b.png	mr_images/9_a_z_90.png	right	cw	90	NA	NA	NA	NA	0	52	52	208	399.87621460016817	NA	NA	NA	NA	400.44308090023696	400.44308090023696	right	1	2.603418900165707	NA	ABF	001	2026-03-12_14h07.30.665	MR	2023.1.0	59.906713253196834	NA
mr_images/12_b.png	mr_images/12_a_z_90.png	right	cw	90	NA	NA	NA	NA	0	53	53	64	403.0758628002368	NA	NA	NA	NA	403.62582419998944	403.62582419998944	left	0	2.358573299832642	NA	ABF	001	2026-03-12_14h07.30.665	MR	2023.1.0	59.906713253196834	NA
mr_images/5_b.png	mr_images/5_a_z_270.png	right	ccw	90	NA	NA	NA	NA	0	54	54	138	406.0088209998794	NA	NA	NA	NA	406.55875839991495	406.55875839991495	right	1	4.529535400215536	NA	ABF	001	2026-03-12_14h07.30.665	MR	2023.1.0	59.906713253196834	NA
mr_images/7_b.png	mr_images/7_b_z_225.png	left	ccw	135	NA	NA	NA	NA	0	55	55	191	411.1080975001678	NA	NA	NA	NA	411.6747456002049	411.6747456002049	right	0	2.431146700400859	NA	ABF	001	2026-03-12_14h07.30.665	MR	2023.1.0	59.906713253196834	NA
mr_images/1_a.png	mr_images/1_b_z_315.png	right	ccw	45	NA	NA	NA	NA	0	56	56	2	414.12437159987167	NA	NA	NA	NA	414.67581549985334	414.67581549985334	right	1	2.089082600083202	NA	ABF	001	2026-03-12_14h07.30.665	MR	2023.1.0	59.906713253196834	NA
mr_images/1_b.png	mr_images/1_a_z_270.png	right	ccw	90	NA	NA	NA	NA	0	57	57	18	416.7946446002461	NA	NA	NA	NA	417.35719789983705	417.35719789983705	right	1	3.9858481003902857	NA	ABF	001	2026-03-12_14h07.30.665	MR	2023.1.0	59.906713253196834	NA
mr_images/4_b.png	mr_images/4_b_z_315.png	left	ccw	45	NA	NA	NA	NA	0	58	58	111	421.37349379993975	NA	NA	NA	NA	421.9399532000534	421.9399532000534	left	1	1.796434000134468	NA	ABF	001	2026-03-12_14h07.30.665	MR	2023.1.0	59.906713253196834	NA
mr_images/11_a.png	mr_images/11_b_z_270.png	right	ccw	90	NA	NA	NA	NA	0	59	59	30	423.7563085998409	NA	NA	NA	NA	424.30766100017354	424.30766100017354	right	1	4.521564799826592	NA	ABF	001	2026-03-12_14h07.30.665	MR	2023.1.0	59.906713253196834	NA
mr_images/3_b.png	mr_images/3_a_z_315.png	right	ccw	45	NA	NA	NA	NA	0	60	60	86	428.8561653001234	NA	NA	NA	NA	429.42249000025913	429.42249000025913	left	0	2.015036900062114	NA	ABF	001	2026-03-12_14h07.30.665	MR	2023.1.0	59.906713253196834	NA
mr_images/12_a.png	mr_images/12_b_z_90.png	right	cw	90	NA	NA	NA	NA	0	61	61	52	431.4549515000545	NA	NA	NA	NA	431.994231800083	431.994231800083	left	0	2.615013299975544	NA	ABF	001	2026-03-12_14h07.30.665	MR	2023.1.0	59.906713253196834	NA
mr_images/4_a.png	mr_images/4_a_z_225.png	left	ccw	135	NA	NA	NA	NA	0	62	62	107	434.62557710008696	NA	NA	NA	NA	NA	435.1890833000653	right	0	2.6191503000445664	NA	ABF	001	2026-03-12_14h07.30.665	MR	2023.1.0	59.906713253196834	NA
mr_images/4_a.png	mr_images/4_a_z_270.png	left	ccw	90	NA	NA	NA	NA	0	63	63	103	437.8377363998443	NA	NA	NA	NA	438.4043041998521	438.4043041998521	right	0	2.217650500126183	NA	ABF	001	2026-03-12_14h07.30.665	MR	2023.1.0	59.906713253196834	NA
mr_images/12_b.png	mr_images/12_a_z_270.png	right	ccw	90	NA	NA	NA	NA	0	64	64	66	440.65402740007266	NA	NA	NA	NA	441.2034660000354	441.2034660000354	left	0	4.53515819972381	NA	ABF	001	2026-03-12_14h07.30.665	MR	2023.1.0	59.906713253196834	NA
mr_images/12_b.png	mr_images/12_b_z_45.png	left	cw	45	NA	NA	NA	NA	0	65	65	61	445.7699068998918	NA	NA	NA	NA	446.3365974999033	446.3365974999033	left	1	2.25371260009706	NA	ABF	001	2026-03-12_14h07.30.665	MR	2023.1.0	59.906713253196834	NA
mr_images/5_b.png	mr_images/5_b_z_315.png	left	ccw	45	NA	NA	NA	NA	0	66	66	135	448.6199174998328	NA	NA	NA	NA	449.1701279999688	449.1701279999688	None	0	NA	NA	ABF	001	2026-03-12_14h07.30.665	MR	2023.1.0	59.906713253196834	NA
mr_images/3_a.png	mr_images/3_a_z_90.png	left	cw	90	NA	NA	NA	NA	0	67	67	77	454.135939899832	NA	NA	NA	NA	NA	454.6901748999953	right	0	2.6003189999610186	NA	ABF	001	2026-03-12_14h07.30.665	MR	2023.1.0	59.906713253196834	NA
mr_images/6_a.png	mr_images/6_b_z_315.png	right	ccw	45	NA	NA	NA	NA	0	68	68	146	457.3060786998831	NA	NA	NA	NA	457.8516664998606	457.8516664998606	left	0	3.3125820998102427	NA	ABF	001	2026-03-12_14h07.30.665	MR	2023.1.0	59.906713253196834	NA
mr_images/12_a.png	mr_images/12_b_z_315.png	right	ccw	45	NA	NA	NA	NA	0	69	69	50	461.1845598998479	NA	NA	NA	NA	461.7343967999332	461.7343967999332	left	0	1.3851260002702477	NA	ABF	001	2026-03-12_14h07.30.665	MR	2023.1.0	59.906713253196834	NA
mr_images/1_b.png	mr_images/1_b_z_45.png	left	cw	45	NA	NA	NA	NA	0	70	70	13	463.1509301001206	NA	NA	NA	NA	463.7174116000533	463.7174116000533	right	0	2.268108000047505	NA	ABF	001	2026-03-12_14h07.30.665	MR	2023.1.0	59.906713253196834	NA
mr_images/5_b.png	mr_images/5_a_z_315.png	right	ccw	45	NA	NA	NA	NA	0	71	71	134	466.0171329001896	NA	NA	NA	NA	466.5837619998492	466.5837619998492	left	0	2.5018071001395583	NA	ABF	001	2026-03-12_14h07.30.665	MR	2023.1.0	59.906713253196834	NA
mr_images/6_a.png	mr_images/6_a_z_315.png	left	ccw	45	NA	NA	NA	NA	0	72	72	147	469.1166345998645	NA	NA	NA	NA	469.6832317998633	469.6832317998633	right	0	3.0208129002712667	NA	ABF	001	2026-03-12_14h07.30.665	MR	2023.1.0	59.906713253196834	NA
mr_images/11_b.png	mr_images/11_a_z_315.png	right	ccw	45	NA	NA	NA	NA	0	73	73	38	472.7329045999795	NA	NA	NA	NA	473.29995740018785	473.29995740018785	left	0	3.631320499815047	NA	ABF	001	2026-03-12_14h07.30.665	MR	2023.1.0	59.906713253196834	NA
mr_images/7_b.png	mr_images/7_a_z_135.png	right	cw	135	NA	NA	NA	NA	0	74	74	188	476.9489421001635	NA	NA	NA	NA	477.4992793998681	477.4992793998681	right	1	2.6637849998660386	NA	ABF	001	2026-03-12_14h07.30.665	MR	2023.1.0	59.906713253196834	NA
mr_images/4_b.png	mr_images/4_a_z_135.png	right	cw	135	NA	NA	NA	NA	0	75	75	116	480.1819695997983	NA	NA	NA	NA	480.74844620004296	480.74844620004296	left	0	3.240421900060028	NA	ABF	001	2026-03-12_14h07.30.665	MR	2023.1.0	59.906713253196834	NA
mr_images/6_b.png	mr_images/6_a_z_225.png	right	ccw	135	NA	NA	NA	NA	0	76	76	166	484.0146822999231	NA	NA	NA	NA	484.5646051000804	484.5646051000804	right	1	1.8984051002189517	NA	ABF	001	2026-03-12_14h07.30.665	MR	2023.1.0	59.906713253196834	NA
mr_images/12_a.png	mr_images/12_a_z_270.png	left	ccw	90	NA	NA	NA	NA	0	77	77	55	486.48153130011633	NA	NA	NA	NA	487.01409800024703	487.01409800024703	left	1	4.466394099872559	NA	ABF	001	2026-03-12_14h07.30.665	MR	2023.1.0	59.906713253196834	NA
mr_images/12_a.png	mr_images/12_a_z_45.png	left	cw	45	NA	NA	NA	NA	0	78	78	49	491.4969628001563	NA	NA	NA	NA	492.0803602999076	492.0803602999076	right	0	1.7835523001849651	NA	ABF	001	2026-03-12_14h07.30.665	MR	2023.1.0	59.906713253196834	NA
mr_images/12_b.png	mr_images/12_b_z_90.png	left	cw	90	NA	NA	NA	NA	0	79	79	65	493.88034310005605	NA	NA	NA	NA	494.4131742999889	494.4131742999889	left	1	2.722178699914366	NA	ABF	001	2026-03-12_14h07.30.665	MR	2023.1.0	59.906713253196834	NA
mr_images/9_a.png	mr_images/9_b_z_45.png	right	cw	45	NA	NA	NA	NA	0	80	80	192	497.1627821000293	NA	NA	NA	NA	497.69564819987863	497.69564819987863	right	1	1.6516936998814344	NA	ABF	001	2026-03-12_14h07.30.665	MR	2023.1.0	59.906713253196834	NA
mr_images/9_b.png	mr_images/9_b_z_90.png	left	cw	90	NA	NA	NA	NA	0	81	81	209	499.3792187999934	NA	NA	NA	NA	499.945812900085	499.945812900085	left	1	1.5155119001865387	NA	ABF	001	2026-03-12_14h07.30.665	MR	2023.1.0	59.906713253196834	NA
mr_images/4_b.png	mr_images/4_a_z_90.png	right	cw	90	NA	NA	NA	NA	0	82	82	112	501.4789128000848	NA	NA	NA	NA	502.04549780022353	502.04549780022353	right	1	3.171315399929881	NA	ABF	001	2026-03-12_14h07.30.665	MR	2023.1.0	59.906713253196834	NA
mr_images/4_b.png	mr_images/4_b_z_90.png	left	cw	90	NA	NA	NA	NA	0	83	83	113	505.24507870012894	NA	NA	NA	NA	505.7992054000497	505.7992054000497	right	0	2.1932065999135375	NA	ABF	001	2026-03-12_14h07.30.665	MR	2023.1.0	59.906713253196834	NA
mr_images/3_b.png	mr_images/3_b_z_225.png	left	ccw	135	NA	NA	NA	NA	0	84	84	95	508.01620290009305	NA	NA	NA	NA	508.5778210000135	508.5778210000135	right	0	4.11392020015046	NA	ABF	001	2026-03-12_14h07.30.665	MR	2023.1.0	59.906713253196834	NA
mr_images/1_a.png	mr_images/1_b_z_45.png	right	cw	45	NA	NA	NA	NA	0	85	85	0	512.7111754999496	NA	NA	NA	NA	513.2444309000857	513.2444309000857	right	1	3.811810399871319	NA	ABF	001	2026-03-12_14h07.30.665	MR	2023.1.0	59.906713253196834	NA
mr_images/1_a.png	mr_images/1_a_z_270.png	left	ccw	90	NA	NA	NA	NA	0	86	86	7	517.0807636999525	NA	NA	NA	NA	517.6151025001891	517.6151025001891	right	0	2.7446281001903117	NA	ABF	001	2026-03-12_14h07.30.665	MR	2023.1.0	59.906713253196834	NA
mr_images/11_a.png	mr_images/11_b_z_90.png	right	cw	90	NA	NA	NA	NA	0	87	87	28	520.3803379000165	NA	NA	NA	NA	520.9600414000452	520.9600414000452	right	1	3.8748654001392424	NA	ABF	001	2026-03-12_14h07.30.665	MR	2023.1.0	59.906713253196834	NA
mr_images/9_b.png	mr_images/9_b_z_225.png	left	ccw	135	NA	NA	NA	NA	0	88	88	215	524.8589893998578	NA	NA	NA	NA	525.4255893998779	525.4255893998779	right	0	3.6614701002836223	NA	ABF	001	2026-03-12_14h07.30.665	MR	2023.1.0	59.906713253196834	NA
mr_images/1_a.png	mr_images/1_a_z_135.png	left	cw	135	NA	NA	NA	NA	0	89	89	9	529.1082148002461	NA	NA	NA	NA	529.6433001002297	529.6433001002297	left	1	2.6085078003816307	NA	ABF	001	2026-03-12_14h07.30.665	MR	2023.1.0	59.906713253196834	NA
mr_images/11_b.png	mr_images/11_b_z_315.png	left	ccw	45	NA	NA	NA	NA	0	90	90	39	532.2792127998546	NA	NA	NA	NA	532.8412958001718	532.8412958001718	None	0	NA	NA	ABF	001	2026-03-12_14h07.30.665	MR	2023.1.0	59.906713253196834	NA
mr_images/11_a.png	mr_images/11_b_z_135.png	right	cw	135	NA	NA	NA	NA	0	91	91	32	537.7905510999262	NA	NA	NA	NA	NA	538.3571568001062	right	1	2.4524352997541428	NA	ABF	001	2026-03-12_14h07.30.665	MR	2023.1.0	59.906713253196834	NA
mr_images/11_b.png	mr_images/11_a_z_90.png	right	cw	90	NA	NA	NA	NA	0	92	92	40	540.8401024998166	NA	NA	NA	NA	541.4065944999456	541.4065944999456	right	1	2.569436499848962	NA	ABF	001	2026-03-12_14h07.30.665	MR	2023.1.0	59.906713253196834	NA
mr_images/7_b.png	mr_images/7_b_z_270.png	left	ccw	90	NA	NA	NA	NA	0	93	93	187	544.0067413002253	NA	NA	NA	NA	544.5733047001995	544.5733047001995	left	1	2.372833000030369	NA	ABF	001	2026-03-12_14h07.30.665	MR	2023.1.0	59.906713253196834	NA
mr_images/6_b.png	mr_images/6_b_z_135.png	left	cw	135	NA	NA	NA	NA	0	94	94	165	546.9726249999367	NA	NA	NA	NA	547.5398745001294	547.5398745001294	right	0	3.362025700043887	NA	ABF	001	2026-03-12_14h07.30.665	MR	2023.1.0	59.906713253196834	NA
mr_images/12_a.png	mr_images/12_a_z_315.png	left	ccw	45	NA	NA	NA	NA	0	95	95	51	550.922589499969	NA	NA	NA	NA	NA	551.4907873999327	right	0	3.704829400405288	NA	ABF	001	2026-03-12_14h07.30.665	MR	2023.1.0	59.906713253196834	NA
mr_images/4_b.png	mr_images/4_a_z_270.png	right	ccw	90	NA	NA	NA	NA	0	96	96	114	555.2254031002522	NA	NA	NA	NA	555.758023200091	555.758023200091	right	1	2.154968900140375	NA	ABF	001	2026-03-12_14h07.30.665	MR	2023.1.0	59.906713253196834	NA
mr_images/12_a.png	mr_images/12_a_z_90.png	left	cw	90	NA	NA	NA	NA	0	97	97	53	557.9417928000912	NA	NA	NA	NA	558.487752399873	558.487752399873	left	1	2.0625040004961193	NA	ABF	001	2026-03-12_14h07.30.665	MR	2023.1.0	59.906713253196834	NA
mr_images/5_a.png	mr_images/5_b_z_90.png	right	cw	90	NA	NA	NA	NA	0	98	98	124	560.5711683998816	NA	NA	NA	NA	561.1210512001999	561.1210512001999	right	1	1.7876694002188742	NA	ABF	001	2026-03-12_14h07.30.665	MR	2023.1.0	59.906713253196834	NA
mr_images/11_b.png	mr_images/11_a_z_135.png	right	cw	135	NA	NA	NA	NA	0	99	99	44	562.9370202999562	NA	NA	NA	NA	563.4922364000231	563.4922364000231	right	1	2.228963900357485	NA	ABF	001	2026-03-12_14h07.30.665	MR	2023.1.0	59.906713253196834	NA
mr_images/11_a.png	mr_images/11_b_z_45.png	right	cw	45	NA	NA	NA	NA	0	100	100	24	565.7407820001245	NA	NA	NA	NA	566.286363999825	566.286363999825	left	0	3.228430099785328	NA	ABF	001	2026-03-12_14h07.30.665	MR	2023.1.0	59.906713253196834	NA
mr_images/6_b.png	mr_images/6_b_z_315.png	left	ccw	45	NA	NA	NA	NA	0	101	101	159	569.5360975000076	NA	NA	NA	NA	570.0700706001371	570.0700706001371	left	1	2.278213399928063	NA	ABF	001	2026-03-12_14h07.30.665	MR	2023.1.0	59.906713253196834	NA
mr_images/7_a.png	mr_images/7_b_z_45.png	right	cw	45	NA	NA	NA	NA	0	102	102	168	572.3690752000548	NA	NA	NA	NA	572.9032077998854	572.9032077998854	left	0	2.35325220040977	NA	ABF	001	2026-03-12_14h07.30.665	MR	2023.1.0	59.906713253196834	NA
mr_images/11_b.png	mr_images/11_b_z_270.png	left	ccw	90	NA	NA	NA	NA	0	103	103	43	575.2856287998147	NA	NA	NA	NA	575.8196066999808	575.8196066999808	right	0	1.709954199846834	NA	ABF	001	2026-03-12_14h07.30.665	MR	2023.1.0	59.906713253196834	NA
mr_images/4_a.png	mr_images/4_a_z_90.png	left	cw	90	NA	NA	NA	NA	0	104	104	101	577.5516768000089	NA	NA	NA	NA	578.0849688998424	578.0849688998424	right	0	2.404167199973017	NA	ABF	001	2026-03-12_14h07.30.665	MR	2023.1.0	59.906713253196834	NA
mr_images/11_b.png	mr_images/11_b_z_225.png	left	ccw	135	NA	NA	NA	NA	0	105	105	47	580.5179443000816	NA	NA	NA	NA	581.084460100159	581.084460100159	right	0	2.337672899942845	NA	ABF	001	2026-03-12_14h07.30.665	MR	2023.1.0	59.906713253196834	NA
mr_images/1_b.png	mr_images/1_b_z_90.png	left	cw	90	NA	NA	NA	NA	0	106	106	17	583.450836900156	NA	NA	NA	NA	584.0174714000896	584.0174714000896	right	0	3.2828701003454626	NA	ABF	001	2026-03-12_14h07.30.665	MR	2023.1.0	59.906713253196834	NA
mr_images/7_a.png	mr_images/7_a_z_270.png	left	ccw	90	NA	NA	NA	NA	0	107	107	175	587.3169800001197	NA	NA	NA	NA	587.8872924000025	587.8872924000025	right	0	2.991760200355202	NA	ABF	001	2026-03-12_14h07.30.665	MR	2023.1.0	59.906713253196834	NA
mr_images/4_b.png	mr_images/4_b_z_270.png	left	ccw	90	NA	NA	NA	NA	0	108	108	115	590.9038368999027	NA	NA	NA	NA	591.4671376999468	591.4671376999468	left	1	4.18460759986192	NA	ABF	001	2026-03-12_14h07.30.665	MR	2023.1.0	59.906713253196834	NA
mr_images/9_a.png	mr_images/9_a_z_225.png	left	ccw	135	NA	NA	NA	NA	0	109	109	203	595.6824691998772	NA	NA	NA	NA	596.2156985998154	596.2156985998154	left	1	2.430637300014496	NA	ABF	001	2026-03-12_14h07.30.665	MR	2023.1.0	59.906713253196834	NA
mr_images/11_b.png	mr_images/11_b_z_45.png	left	cw	45	NA	NA	NA	NA	0	110	110	37	598.6654083998874	NA	NA	NA	NA	599.1990732001141	599.1990732001141	left	1	1.9221208998933432	NA	ABF	001	2026-03-12_14h07.30.665	MR	2023.1.0	59.906713253196834	NA
mr_images/7_a.png	mr_images/7_b_z_315.png	right	ccw	45	NA	NA	NA	NA	0	111	111	170	601.1483900998719	NA	NA	NA	NA	601.6980988001451	601.6980988001451	left	0	2.391533700283617	NA	ABF	001	2026-03-12_14h07.30.665	MR	2023.1.0	59.906713253196834	NA
mr_images/11_a.png	mr_images/11_a_z_45.png	left	cw	45	NA	NA	NA	NA	0	112	112	25	604.1146769998595	NA	NA	NA	NA	604.6491803000681	604.6491803000681	left	1	3.154601300135255	NA	ABF	001	2026-03-12_14h07.30.665	MR	2023.1.0	59.906713253196834	NA
mr_images/1_b.png	mr_images/1_b_z_135.png	left	cw	135	NA	NA	NA	NA	0	113	113	21	607.8352764998563	NA	NA	NA	NA	608.3861136999913	608.3861136999913	right	0	3.3137544998899102	NA	ABF	001	2026-03-12_14h07.30.665	MR	2023.1.0	59.906713253196834	NA
mr_images/9_b.png	mr_images/9_b_z_315.png	left	ccw	45	NA	NA	NA	NA	0	114	114	207	611.7176520000212	NA	NA	NA	NA	612.2636289000511	612.2636289000511	right	0	3.180721600074321	NA	ABF	001	2026-03-12_14h07.30.665	MR	2023.1.0	59.906713253196834	NA
mr_images/4_b.png	mr_images/4_b_z_45.png	left	cw	45	NA	NA	NA	NA	0	115	115	109	615.4671483999118	NA	NA	NA	NA	616.0296467998996	616.0296467998996	right	0	2.574400099925697	NA	ABF	001	2026-03-12_14h07.30.665	MR	2023.1.0	59.906713253196834	NA
mr_images/5_b.png	mr_images/5_a_z_90.png	right	cw	90	NA	NA	NA	NA	0	116	116	136	618.6292948001064	NA	NA	NA	NA	619.1625031000003	619.1625031000003	left	0	3.3836886999197304	NA	ABF	001	2026-03-12_14h07.30.665	MR	2023.1.0	59.906713253196834	NA
mr_images/7_b.png	mr_images/7_a_z_45.png	right	cw	45	NA	NA	NA	NA	0	117	117	180	622.56215529982	NA	NA	NA	NA	623.1285930001177	623.1285930001177	right	1	2.2955641001462936	NA	ABF	001	2026-03-12_14h07.30.665	MR	2023.1.0	59.906713253196834	NA
mr_images/12_b.png	mr_images/12_b_z_135.png	left	cw	135	NA	NA	NA	NA	0	118	118	69	625.4449153002352	NA	NA	NA	NA	626.0118022998795	626.0118022998795	left	1	3.469701200257987	NA	ABF	001	2026-03-12_14h07.30.665	MR	2023.1.0	59.906713253196834	NA
mr_images/12_b.png	mr_images/12_a_z_315.png	right	ccw	45	NA	NA	NA	NA	0	119	119	62	629.5110745001584	NA	NA	NA	NA	630.0444725002162	630.0444725002162	right	1	1.913157400209457	NA	ABF	001	2026-03-12_14h07.30.665	MR	2023.1.0	59.906713253196834	NA
mr_images/3_b.png	mr_images/3_a_z_90.png	right	cw	90	NA	NA	NA	NA	0	120	120	88	631.9779412001371	NA	NA	NA	NA	632.5106640001759	632.5106640001759	right	1	2.8892414001747966	NA	ABF	001	2026-03-12_14h07.30.665	MR	2023.1.0	59.906713253196834	NA
mr_images/4_b.png	mr_images/4_b_z_225.png	left	ccw	135	NA	NA	NA	NA	0	121	121	119	635.4269980001263	NA	NA	NA	NA	635.9621827998199	635.9621827998199	right	0	3.088913599960506	NA	ABF	001	2026-03-12_14h07.30.665	MR	2023.1.0	59.906713253196834	NA
mr_images/1_a.png	mr_images/1_a_z_45.png	left	cw	45	NA	NA	NA	NA	0	122	122	1	639.08066159999	NA	NA	NA	NA	639.6438537002541	639.6438537002541	right	0	2.912440599873662	NA	ABF	001	2026-03-12_14h07.30.665	MR	2023.1.0	59.906713253196834	NA
mr_images/3_b.png	mr_images/3_b_z_90.png	left	cw	90	NA	NA	NA	NA	0	123	123	89	642.5759904999286	NA	NA	NA	NA	643.1259522000328	643.1259522000328	right	0	2.342644900083542	NA	ABF	001	2026-03-12_14h07.30.665	MR	2023.1.0	59.906713253196834	NA
mr_images/11_a.png	mr_images/11_a_z_135.png	left	cw	135	NA	NA	NA	NA	0	124	124	33	645.4921996998601	NA	NA	NA	NA	646.025424099993	646.025424099993	right	0	3.2698872997425497	NA	ABF	001	2026-03-12_14h07.30.665	MR	2023.1.0	59.906713253196834	NA
mr_images/7_a.png	mr_images/7_b_z_90.png	right	cw	90	NA	NA	NA	NA	0	125	125	172	649.3249503998086	NA	NA	NA	NA	649.8749203998595	649.8749203998595	right	1	2.8353535002097487	NA	ABF	001	2026-03-12_14h07.30.665	MR	2023.1.0	59.906713253196834	NA
mr_images/4_b.png	mr_images/4_a_z_225.png	right	ccw	135	NA	NA	NA	NA	0	126	126	118	652.741278800182	NA	NA	NA	NA	653.2765738000162	653.2765738000162	right	1	2.0801170002669096	NA	ABF	001	2026-03-12_14h07.30.665	MR	2023.1.0	59.906713253196834	NA
mr_images/3_a.png	mr_images/3_b_z_135.png	right	cw	135	NA	NA	NA	NA	0	127	127	80	655.378365600016	NA	NA	NA	NA	655.9407851998694	655.9407851998694	right	1	2.0266428999602795	NA	ABF	001	2026-03-12_14h07.30.665	MR	2023.1.0	59.906713253196834	NA
mr_images/4_a.png	mr_images/4_b_z_90.png	right	cw	90	NA	NA	NA	NA	0	128	128	100	657.9909378001466	NA	NA	NA	NA	NA	658.5240131998435	right	1	2.1077314000576735	NA	ABF	001	2026-03-12_14h07.30.665	MR	2023.1.0	59.906713253196834	NA
mr_images/7_a.png	mr_images/7_b_z_225.png	right	ccw	135	NA	NA	NA	NA	0	129	129	178	660.657236199826	NA	NA	NA	NA	661.2067928998731	661.2067928998731	right	1	2.2857097000814974	NA	ABF	001	2026-03-12_14h07.30.665	MR	2023.1.0	59.906713253196834	NA
mr_images/1_a.png	mr_images/1_a_z_315.png	left	ccw	45	NA	NA	NA	NA	0	130	130	3	663.5231256000698	NA	NA	NA	NA	664.056329799816	664.056329799816	left	1	2.0533690005540848	NA	ABF	001	2026-03-12_14h07.30.665	MR	2023.1.0	59.906713253196834	NA
mr_images/4_b.png	mr_images/4_a_z_315.png	right	ccw	45	NA	NA	NA	NA	0	131	131	110	666.139726200141	NA	NA	NA	NA	666.6937832999974	666.6937832999974	left	0	1.7215079003944993	NA	ABF	001	2026-03-12_14h07.30.665	MR	2023.1.0	59.906713253196834	NA
mr_images/6_b.png	mr_images/6_b_z_225.png	left	ccw	135	NA	NA	NA	NA	0	132	132	167	668.4431309998035	NA	NA	NA	NA	669.0085725998506	669.0085725998506	right	0	1.8674538005143404	NA	ABF	001	2026-03-12_14h07.30.665	MR	2023.1.0	59.906713253196834	NA
mr_images/3_a.png	mr_images/3_b_z_225.png	right	ccw	135	NA	NA	NA	NA	0	133	133	82	670.8927571000531	NA	NA	NA	NA	671.4235767000355	671.4235767000355	left	0	2.91452020034194	NA	ABF	001	2026-03-12_14h07.30.665	MR	2023.1.0	59.906713253196834	NA
mr_images/1_b.png	mr_images/1_b_z_315.png	left	ccw	45	NA	NA	NA	NA	0	134	134	15	674.3590875999071	NA	NA	NA	NA	674.8915846999735	674.8915846999735	left	1	2.7121402001939714	NA	ABF	001	2026-03-12_14h07.30.665	MR	2023.1.0	59.906713253196834	NA
mr_images/11_b.png	mr_images/11_b_z_90.png	left	cw	90	NA	NA	NA	NA	0	135	135	41	677.6253732000478	NA	NA	NA	NA	678.1619449998252	678.1619449998252	left	1	1.95912710018456	NA	ABF	001	2026-03-12_14h07.30.665	MR	2023.1.0	59.906713253196834	NA
mr_images/7_a.png	mr_images/7_a_z_90.png	left	cw	90	NA	NA	NA	NA	0	136	136	173	680.1373470001854	NA	NA	NA	NA	680.7040959000587	680.7040959000587	right	0	2.68192380014807	NA	ABF	001	2026-03-12_14h07.30.665	MR	2023.1.0	59.906713253196834	NA
mr_images/12_a.png	mr_images/12_b_z_45.png	right	cw	45	NA	NA	NA	NA	0	137	137	48	683.403624900151	NA	NA	NA	NA	683.9368902998976	683.9368902998976	left	0	2.074225100222975	NA	ABF	001	2026-03-12_14h07.30.665	MR	2023.1.0	59.906713253196834	NA
mr_images/5_a.png	mr_images/5_b_z_270.png	right	ccw	90	NA	NA	NA	NA	0	138	138	126	686.0366099998355	NA	NA	NA	NA	686.6035715001635	686.6035715001635	left	0	2.8248804002068937	NA	ABF	001	2026-03-12_14h07.30.665	MR	2023.1.0	59.906713253196834	NA
mr_images/9_b.png	mr_images/9_b_z_270.png	left	ccw	90	NA	NA	NA	NA	0	139	139	211	689.4533551000059	NA	NA	NA	NA	690.0032942001708	690.0032942001708	left	1	1.8455605003982785	NA	ABF	001	2026-03-12_14h07.30.665	MR	2023.1.0	59.906713253196834	NA
mr_images/7_a.png	mr_images/7_b_z_270.png	right	ccw	90	NA	NA	NA	NA	0	140	140	174	691.8696563998237	NA	NA	NA	NA	692.4025204000063	692.4025204000063	left	0	2.5959061002358794	NA	ABF	001	2026-03-12_14h07.30.665	MR	2023.1.0	59.906713253196834	NA
mr_images/3_a.png	mr_images/3_b_z_45.png	right	cw	45	NA	NA	NA	NA	0	141	141	72	695.018641400151	NA	NA	NA	NA	695.5853249002248	695.5853249002248	left	0	2.460210600402206	NA	ABF	001	2026-03-12_14h07.30.665	MR	2023.1.0	59.906713253196834	NA
mr_images/9_b.png	mr_images/9_a_z_45.png	right	cw	45	NA	NA	NA	NA	0	142	142	204	698.0682357000187	NA	NA	NA	NA	698.6240158001892	698.6240158001892	right	1	2.27179369982332	NA	ABF	001	2026-03-12_14h07.30.665	MR	2023.1.0	59.906713253196834	NA
mr_images/11_a.png	mr_images/11_a_z_315.png	left	ccw	45	NA	NA	NA	NA	0	143	143	27	700.9223718000576	NA	NA	NA	NA	701.4532539001666	701.4532539001666	left	1	1.6066903001628816	NA	ABF	001	2026-03-12_14h07.30.665	MR	2023.1.0	59.906713253196834	NA
mr_images/12_b.png	mr_images/12_a_z_45.png	right	cw	45	NA	NA	NA	NA	0	144	144	60	703.0883335000835	NA	NA	NA	NA	703.6345409001224	703.6345409001224	left	0	2.93383579980582	NA	ABF	001	2026-03-12_14h07.30.665	MR	2023.1.0	59.906713253196834	NA
mr_images/4_a.png	mr_images/4_a_z_45.png	left	cw	45	NA	NA	NA	NA	0	145	145	97	706.6008386998437	NA	NA	NA	NA	707.1559109999798	707.1559109999798	left	1	1.3116533998399973	NA	ABF	001	2026-03-12_14h07.30.665	MR	2023.1.0	59.906713253196834	NA
mr_images/6_b.png	mr_images/6_a_z_90.png	right	cw	90	NA	NA	NA	NA	0	146	146	160	708.4877396998927	NA	NA	NA	NA	709.0500439000316	709.0500439000316	left	0	2.1154072997160256	NA	ABF	001	2026-03-12_14h07.30.665	MR	2023.1.0	59.906713253196834	NA
mr_images/6_b.png	mr_images/6_a_z_270.png	right	ccw	90	NA	NA	NA	NA	0	147	147	162	711.1834448999725	NA	NA	NA	NA	711.7498205001466	711.7498205001466	right	1	1.684032800141722	NA	ABF	001	2026-03-12_14h07.30.665	MR	2023.1.0	59.906713253196834	NA
mr_images/7_a.png	mr_images/7_a_z_45.png	left	cw	45	NA	NA	NA	NA	0	148	148	169	713.4661125000566	NA	NA	NA	NA	713.99920189986	713.99920189986	right	0	1.7256411002017558	NA	ABF	001	2026-03-12_14h07.30.665	MR	2023.1.0	59.906713253196834	NA
mr_images/11_a.png	mr_images/11_a_z_90.png	left	cw	90	NA	NA	NA	NA	0	149	149	29	715.749081700109	NA	NA	NA	NA	716.2835424998775	716.2835424998775	right	0	1.8370378999970851	NA	ABF	001	2026-03-12_14h07.30.665	MR	2023.1.0	59.906713253196834	NA
mr_images/4_a.png	mr_images/4_a_z_135.png	left	cw	135	NA	NA	NA	NA	0	150	150	105	718.1486659999937	NA	NA	NA	NA	718.6824115002528	718.6824115002528	left	1	1.4050949001684785	NA	ABF	001	2026-03-12_14h07.30.665	MR	2023.1.0	59.906713253196834	NA
mr_images/5_a.png	mr_images/5_a_z_315.png	left	ccw	45	NA	NA	NA	NA	0	151	151	123	720.1152631998993	NA	NA	NA	NA	720.6484481999651	720.6484481999651	right	0	2.0265065003186464	NA	ABF	001	2026-03-12_14h07.30.665	MR	2023.1.0	59.906713253196834	NA
mr_images/6_a.png	mr_images/6_b_z_225.png	right	ccw	135	NA	NA	NA	NA	0	152	152	154	722.6982781998813	NA	NA	NA	NA	723.2316506998613	723.2316506998613	right	1	1.9749682997353375	NA	ABF	001	2026-03-12_14h07.30.665	MR	2023.1.0	59.906713253196834	NA
mr_images/6_a.png	mr_images/6_a_z_45.png	left	cw	45	NA	NA	NA	NA	0	153	153	145	725.2310835998505	NA	NA	NA	NA	725.7647934998386	725.7647934998386	left	1	2.7156291003338993	NA	ABF	001	2026-03-12_14h07.30.665	MR	2023.1.0	59.906713253196834	NA
mr_images/9_b.png	mr_images/9_a_z_270.png	right	ccw	90	NA	NA	NA	NA	0	154	154	210	728.4973840001039	NA	NA	NA	NA	729.0475706998259	729.0475706998259	right	1	2.288136300165206	NA	ABF	001	2026-03-12_14h07.30.665	MR	2023.1.0	59.906713253196834	NA
mr_images/6_b.png	mr_images/6_a_z_315.png	right	ccw	45	NA	NA	NA	NA	0	155	155	158	731.363829200156	NA	NA	NA	NA	731.8967663999647	731.8967663999647	left	0	2.751181200146675	NA	ABF	001	2026-03-12_14h07.30.665	MR	2023.1.0	59.906713253196834	NA
mr_images/3_a.png	mr_images/3_a_z_270.png	left	ccw	90	NA	NA	NA	NA	0	156	156	79	734.6802260000259	NA	NA	NA	NA	735.2631312999874	735.2631312999874	right	0	3.2473884001374245	NA	ABF	001	2026-03-12_14h07.30.665	MR	2023.1.0	59.906713253196834	NA
mr_images/1_b.png	mr_images/1_a_z_225.png	right	ccw	135	NA	NA	NA	NA	0	157	157	22	738.5294611002319	NA	NA	NA	NA	739.0791492001154	739.0791492001154	right	1	1.6374602001160383	NA	ABF	001	2026-03-12_14h07.30.665	MR	2023.1.0	59.906713253196834	NA
mr_images/4_b.png	mr_images/4_a_z_45.png	right	cw	45	NA	NA	NA	NA	0	158	158	108	740.7456057998352	NA	NA	NA	NA	741.2806092002429	741.2806092002429	left	0	2.6108981003053486	NA	ABF	001	2026-03-12_14h07.30.665	MR	2023.1.0	59.906713253196834	NA
mr_images/3_b.png	mr_images/3_a_z_225.png	right	ccw	135	NA	NA	NA	NA	0	159	159	94	743.9160386002623	NA	NA	NA	NA	744.4488635999151	744.4488635999151	right	1	1.6835643998347225	NA	ABF	001	2026-03-12_14h07.30.665	MR	2023.1.0	59.906713253196834	NA
mr_images/9_a.png	mr_images/9_b_z_90.png	right	cw	90	NA	NA	NA	NA	0	160	160	196	746.1490760999732	NA	NA	NA	NA	746.681169600226	746.681169600226	right	1	2.6293032998219132	NA	ABF	001	2026-03-12_14h07.30.665	MR	2023.1.0	59.906713253196834	NA
mr_images/3_b.png	mr_images/3_a_z_270.png	right	ccw	90	NA	NA	NA	NA	0	161	161	90	749.3318810001947	NA	NA	NA	NA	NA	749.8777008000761	right	1	3.570390000008046	NA	ABF	001	2026-03-12_14h07.30.665	MR	2023.1.0	59.906713253196834	NA
mr_images/9_b.png	mr_images/9_a_z_315.png	right	ccw	45	NA	NA	NA	NA	0	162	162	206	753.4774285000749	NA	NA	NA	NA	754.010375900194	754.010375900194	left	0	1.604028099682182	NA	ABF	001	2026-03-12_14h07.30.665	MR	2023.1.0	59.906713253196834	NA
mr_images/6_a.png	mr_images/6_b_z_135.png	right	cw	135	NA	NA	NA	NA	0	163	163	152	755.6435631001368	NA	NA	NA	NA	756.1768652000464	756.1768652000464	left	0	3.951158300042152	NA	ABF	001	2026-03-12_14h07.30.665	MR	2023.1.0	59.906713253196834	NA
mr_images/9_a.png	mr_images/9_b_z_135.png	right	cw	135	NA	NA	NA	NA	0	164	164	200	760.1596257998608	NA	NA	NA	NA	760.7146998001263	760.7146998001263	left	0	3.38088950002566	NA	ABF	001	2026-03-12_14h07.30.665	MR	2023.1.0	59.906713253196834	NA
mr_images/11_a.png	mr_images/11_b_z_225.png	right	ccw	135	NA	NA	NA	NA	0	165	165	34	764.1131396000274	NA	NA	NA	NA	764.6441326998174	764.6441326998174	right	1	2.3442679001018405	NA	ABF	001	2026-03-12_14h07.30.665	MR	2023.1.0	59.906713253196834	NA
mr_images/9_a.png	mr_images/9_a_z_45.png	left	cw	45	NA	NA	NA	NA	0	166	166	193	767.0127496002242	NA	NA	NA	NA	767.5438117999583	767.5438117999583	right	0	2.984429200179875	NA	ABF	001	2026-03-12_14h07.30.665	MR	2023.1.0	59.906713253196834	NA
mr_images/5_b.png	mr_images/5_b_z_225.png	left	ccw	135	NA	NA	NA	NA	0	167	167	143	770.5456095999107	NA	NA	NA	NA	771.1080992999487	771.1080992999487	right	0	3.744075499940664	NA	ABF	001	2026-03-12_14h07.30.665	MR	2023.1.0	59.906713253196834	NA
mr_images/6_a.png	mr_images/6_a_z_90.png	left	cw	90	NA	NA	NA	NA	0	168	168	149	774.8742522001266	NA	NA	NA	NA	775.4075235999189	775.4075235999189	left	1	3.105435200035572	NA	ABF	001	2026-03-12_14h07.30.665	MR	2023.1.0	59.906713253196834	NA
mr_images/9_b.png	mr_images/9_b_z_135.png	left	cw	135	NA	NA	NA	NA	0	169	169	213	778.5404504002072	NA	NA	NA	NA	779.0736707001925	779.0736707001925	right	0	3.454226200003177	NA	ABF	001	2026-03-12_14h07.30.665	MR	2023.1.0	59.906713253196834	NA
mr_images/6_a.png	mr_images/6_b_z_90.png	right	cw	90	NA	NA	NA	NA	0	170	170	148	782.5566130001098	NA	NA	NA	NA	783.1067384001799	783.1067384001799	left	0	3.232858800329268	NA	ABF	001	2026-03-12_14h07.30.665	MR	2023.1.0	59.906713253196834	NA
mr_images/3_b.png	mr_images/3_a_z_45.png	right	cw	45	NA	NA	NA	NA	0	171	171	84	786.3723241002299	NA	NA	NA	NA	786.9558772998862	786.9558772998862	left	0	3.510936700273305	NA	ABF	001	2026-03-12_14h07.30.665	MR	2023.1.0	59.906713253196834	NA
mr_images/5_b.png	mr_images/5_b_z_270.png	left	ccw	90	NA	NA	NA	NA	0	172	172	139	790.4887744998559	NA	NA	NA	NA	791.0219423999079	791.0219423999079	left	1	2.6097295000217855	NA	ABF	001	2026-03-12_14h07.30.665	MR	2023.1.0	59.906713253196834	NA
mr_images/1_a.png	mr_images/1_b_z_135.png	right	cw	135	NA	NA	NA	NA	0	173	173	8	793.6552220000885	NA	NA	NA	NA	794.1880906000733	794.1880906000733	right	1	4.663407700136304	NA	ABF	001	2026-03-12_14h07.30.665	MR	2023.1.0	59.906713253196834	NA
mr_images/1_b.png	mr_images/1_a_z_90.png	right	cw	90	NA	NA	NA	NA	0	174	174	16	798.8710031001829	NA	NA	NA	NA	799.4208468999714	799.4208468999714	right	1	2.0924970004707575	NA	ABF	001	2026-03-12_14h07.30.665	MR	2023.1.0	59.906713253196834	NA
mr_images/6_b.png	mr_images/6_b_z_270.png	left	ccw	90	NA	NA	NA	NA	0	175	175	163	801.5377028998919	NA	NA	NA	NA	802.0877270000055	802.0877270000055	left	1	2.3186229998245835	NA	ABF	001	2026-03-12_14h07.30.665	MR	2023.1.0	59.906713253196834	NA
mr_images/1_a.png	mr_images/1_b_z_90.png	right	cw	90	NA	NA	NA	NA	0	176	176	4	804.4372777999379	NA	NA	NA	NA	804.9704640000127	804.9704640000127	right	1	3.5323238000273705	NA	ABF	001	2026-03-12_14h07.30.665	MR	2023.1.0	59.906713253196834	NA
mr_images/7_b.png	mr_images/7_a_z_270.png	right	ccw	90	NA	NA	NA	NA	0	177	177	186	808.5201814002357	NA	NA	NA	NA	809.0573745002039	809.0573745002039	right	1	2.9433868997730315	NA	ABF	001	2026-03-12_14h07.30.665	MR	2023.1.0	59.906713253196834	NA
mr_images/5_b.png	mr_images/5_a_z_225.png	right	ccw	135	NA	NA	NA	NA	0	178	178	142	812.023134500254	NA	NA	NA	NA	812.569027100224	812.569027100224	right	1	2.6467475998215377	NA	ABF	001	2026-03-12_14h07.30.665	MR	2023.1.0	59.906713253196834	NA
mr_images/4_a.png	mr_images/4_b_z_45.png	right	cw	45	NA	NA	NA	NA	0	179	179	96	815.2354242000729	NA	NA	NA	NA	815.7685778001323	815.7685778001323	right	1	4.270922999829054	NA	ABF	001	2026-03-12_14h07.30.665	MR	2023.1.0	59.906713253196834	NA
mr_images/11_b.png	mr_images/11_b_z_135.png	left	cw	135	NA	NA	NA	NA	0	180	180	45	820.0679709999822	NA	NA	NA	NA	820.60099419998	820.60099419998	left	1	3.034369899891317	NA	ABF	001	2026-03-12_14h07.30.665	MR	2023.1.0	59.906713253196834	NA
mr_images/1_b.png	mr_images/1_b_z_270.png	left	ccw	90	NA	NA	NA	NA	0	181	181	19	823.6675848001614	NA	NA	NA	NA	824.2341477000155	824.2341477000155	right	0	3.7679304000921543	NA	ABF	001	2026-03-12_14h07.30.665	MR	2023.1.0	59.906713253196834	NA
mr_images/7_b.png	mr_images/7_a_z_315.png	right	ccw	45	NA	NA	NA	NA	0	182	182	182	828.0336078000255	NA	NA	NA	NA	828.60014380002394	828.60014380002394	left	0	2.7635274999774992	NA	ABF	001	2026-03-12_14h07.30.665	MR	2023.1.0	59.906713253196834	NA
mr_images/3_b.png	mr_images/3_b_z_270.png	left	ccw	90	NA	NA	NA	NA	0	183	183	91	831.3830969999544	NA	NA	NA	NA	831.9207824999467	831.9207824999467	right	0	3.8158363001421094	NA	ABF	001	2026-03-12_14h07.30.665	MR	2023.1.0	59.906713253196834	NA
mr_images/6_a.png	mr_images/6_a_z_270.png	left	ccw	90	NA	NA	NA	NA	0	184	184	151	835.7531671002507	NA	NA	NA	NA	836.2849507001229	836.2849507001229	left	1	3.6751479003578424	NA	ABF	001	2026-03-12_14h07.30.665	MR	2023.1.0	59.906713253196834	NA
mr_images/1_a.png	mr_images/1_b_z_270.png	right	ccw	90	NA	NA	NA	NA	0	185	185	6	839.9859923999757	NA	NA	NA	NA	840.5179892000742	840.5179892000742	left	0	3.2381726000458	NA	ABF	001	2026-03-12_14h07.30.665	MR	2023.1.0	59.906713253196834	NA
mr_images/7_a.png	mr_images/7_a_z_315.png	left	ccw	45	NA	NA	NA	NA	0	186	186	171	843.7858329000883	NA	NA	NA	NA	844.3024865002371	844.3024865002371	left	1	3.4278158000670373	NA	ABF	001	2026-03-12_14h07.30.665	MR	2023.1.0	59.906713253196834	NA
mr_images/12_a.png	mr_images/12_b_z_225.png	right	ccw	135	NA	NA	NA	NA	0	187	187	58	847.7519255001098	NA	NA	NA	NA	848.314420199953	848.314420199953	left	0	3.003937100060284	NA	ABF	001	2026-03-12_14h07.30.665	MR	2023.1.0	59.906713253196834	NA
mr_images/7_b.png	mr_images/7_a_z_225.png	right	ccw	135	NA	NA	NA	NA	0	188	188	190	851.3469690000638	NA	NA	NA	NA	851.8969081002288	851.8969081002288	right	1	2.014850900042802	NA	ABF	001	2026-03-12_14h07.30.665	MR	2023.1.0	59.906713253196834	NA
mr_images/12_b.png	mr_images/12_b_z_270.png	left	ccw	90	NA	NA	NA	NA	0	189	189	67	853.9299408001825	NA	NA	NA	NA	854.4799073999748	854.4799073999748	right	0	3.335726400371641	NA	ABF	001	2026-03-12_14h07.30.665	MR	2023.1.0	59.906713253196834	NA
mr_images/3_a.png	mr_images/3_a_z_45.png	left	cw	45	NA	NA	NA	NA	0	190	190	73	857.8459160001948	NA	NA	NA	NA	858.378889599815	858.378889599815	right	0	3.402369699906558	NA	ABF	001	2026-03-12_14h07.30.665	MR	2023.1.0	59.906713253196834	NA
mr_images/7_b.png	mr_images/7_a_z_90.png	right	cw	90	NA	NA	NA	NA	0	191	191	184	861.8128471001983	NA	NA	NA	NA	862.3454955001362	862.3454955001362	right	1	1.8409847002476456	NA	ABF	001	2026-03-12_14h07.30.665	MR	2023.1.0	59.906713253196834	NA
mr_images/9_a.png	mr_images/9_b_z_225.png	right	ccw	135	NA	NA	NA	NA	0	192	192	202	864.2118830000982	NA	NA	NA	NA	864.7505928999744	864.7505928999744	right	1	3.4339994001202285	NA	ABF	001	2026-03-12_14h07.30.665	MR	2023.1.0	59.906713253196834	NA
mr_images/3_a.png	mr_images/3_b_z_315.png	right	ccw	45	NA	NA	NA	NA	0	193	193	74	868.2154196002521	NA	NA	NA	NA	868.7498774998821	868.7498774998821	left	0	3.5612134002149105	NA	ABF	001	2026-03-12_14h07.30.665	MR	2023.1.0	59.906713253196834	NA
mr_images/4_a.png	mr_images/4_a_z_315.png	left	ccw	45	NA	NA	NA	NA	0	194	194	99	872.3314837999642	NA	NA	NA	NA	NA	872.8773705000058	left	1	2.3521209000609815	NA	ABF	001	2026-03-12_14h07.30.665	MR	2023.1.0	59.906713253196834	NA
mr_images/11_a.png	mr_images/11_a_z_270.png	left	ccw	90	NA	NA	NA	NA	0	195	195	31	875.2602864000946	NA	NA	NA	NA	875.8102763001807	875.8102763001807	left	1	2.528885000385344	NA	ABF	001	2026-03-12_14h07.30.665	MR	2023.1.0	59.906713253196834	NA
mr_images/4_a.png	mr_images/4_b_z_270.png	right	ccw	90	NA	NA	NA	NA	0	196	196	102	878.3599685002118	NA	NA	NA	NA	878.8931967001408	878.8931967001408	left	0	2.561064500361681	NA	ABF	001	2026-03-12_14h07.30.665	MR	2023.1.0	59.906713253196834	NA
mr_images/11_a.png	mr_images/11_b_z_315.png	right	ccw	45	NA	NA	NA	NA	0	197	197	26	881.4759635999799	NA	NA	NA	NA	882.0097182001919	882.0097182001919	left	0	2.0371756004169583	NA	ABF	001	2026-03-12_14h07.30.665	MR	2023.1.0	59.906713253196834	NA
mr_images/3_a.png	mr_images/3_a_z_135.png	left	cw	135	NA	NA	NA	NA	0	198	198	81	884.0759624000639	NA	NA	NA	NA	884.6426519001834	884.6426519001834	right	0	3.309844700153917	NA	ABF	001	2026-03-12_14h07.30.665	MR	2023.1.0	59.906713253196834	NA
mr_images/7_b.png	mr_images/7_b_z_135.png	left	cw	135	NA	NA	NA	NA	0	199	199	189	887.9752317001112	NA	NA	NA	NA	888.5288868998177	888.5288868998177	right	0	2.650561900343746	NA	ABF	001	2026-03-12_14h07.30.665	MR	2023.1.0	59.906713253196834	NA
mr_images/12_b.png	mr_images/12_b_z_225.png	left	ccw	135	NA	NA	NA	NA	0	200	200	71	891.1955446000211	NA	NA	NA	NA	891.741368799936	891.741368799936	left	1	3.2995691001415253	NA	ABF	001	2026-03-12_14h07.30.665	MR	2023.1.0	59.906713253196834	NA
mr_images/7_a.png	mr_images/7_b_z_135.png	right	cw	135	NA	NA	NA	NA	0	201	201	176	895.057579100132	NA	NA	NA	NA	895.5912985000759	895.5912985000759	right	1	1.9590586996637285	NA	ABF	001	2026-03-12_14h07.30.665	MR	2023.1.0	59.906713253196834	NA
mr_images/12_a.png	mr_images/12_a_z_135.png	left	cw	135	NA	NA	NA	NA	0	202	202	57	897.573715200182	NA	NA	NA	NA	898.1237559001893	898.1237559001893	left	1	4.505935600027442	NA	ABF	001	2026-03-12_14h07.30.665	MR	2023.1.0	59.906713253196834	NA
mr_images/12_a.png	mr_images/12_b_z_135.png	right	cw	135	NA	NA	NA	NA	0	203	203	56	902.6565817999654	NA	NA	NA	NA	903.206529899966	903.206529899966	left	0	3.9025830002501607	NA	ABF	001	2026-03-12_14h07.30.665	MR	2023.1.0	59.906713253196834	NA
mr_images/5_a.png	mr_images/5_a_z_135.png	left	cw	135	NA	NA	NA	NA	0	204	204	129	907.1392982001416	NA	NA	NA	NA	907.6890688999556	907.6890688999556	left	1	4.677457000128925	NA	ABF	001	2026-03-12_14h07.30.665	MR	2023.1.0	59.906713253196834	NA
mr_images/5_a.png	mr_images/5_a_z_270.png	left	ccw	90	NA	NA	NA	NA	0	205	205	127	912.38845450012	NA	NA	NA	NA	912.9384356001392	912.9384356001392	left	1	2.9164173998869956	NA	ABF	001	2026-03-12_14h07.30.665	MR	2023.1.0	59.906713253196834	NA
mr_images/9_a.png	mr_images/9_a_z_90.png	left	cw	90	NA	NA	NA	NA	0	206	206	197	915.871333300136	NA	NA	NA	NA	916.4047499001026	916.4047499001026	left	1	4.346668000333011	NA	ABF	001	2026-03-12_14h07.30.665	MR	2023.1.0	59.906713253196834	NA
mr_images/3_b.png	mr_images/3_b_z_45.png	left	cw	45	NA	NA	NA	NA	0	207	207	85	920.7707030000164	NA	NA	NA	NA	921.30383790005	921.30383790005	left	1	2.3980237003415823	NA	ABF	001	2026-03-12_14h07.30.665	MR	2023.1.0	59.906713253196834	NA
mr_images/9_b.png	mr_images/9_a_z_135.png	right	cw	135	NA	NA	NA	NA	0	208	208	212	923.720572100021	NA	NA	NA	NA	924.2703197998926	924.2703197998926	left	0	3.0051449998281896	NA	ABF	001	2026-03-12_14h07.30.665	MR	2023.1.0	59.906713253196834	NA
mr_images/12_b.png	mr_images/12_a_z_225.png	right	ccw	135	NA	NA	NA	NA	0	209	209	70	927.303116899915	NA	NA	NA	NA	927.836967600044	927.836967600044	left	0	2.1355787003412843	NA	ABF	001	2026-03-12_14h07.30.665	MR	2023.1.0	59.906713253196834	NA
mr_images/5_a.png	mr_images/5_b_z_225.png	right	ccw	135	NA	NA	NA	NA	0	210	210	130	930.0027295001782	NA	NA	NA	NA	930.5526959002018	930.5526959002018	right	1	2.2313712001778185	NA	ABF	001	2026-03-12_14h07.30.665	MR	2023.1.0	59.906713253196834	NA
mr_images/3_b.png	mr_images/3_b_z_135.png	left	cw	135	NA	NA	NA	NA	0	211	211	93	932.8022416001186	NA	NA	NA	NA	933.3523443001322	933.3523443001322	left	1	4.811634600162506	NA	ABF	001	2026-03-12_14h07.30.665	MR	2023.1.0	59.906713253196834	NA
mr_images/4_b.png	mr_images/4_b_z_135.png	left	cw	135	NA	NA	NA	NA	0	212	212	117	938.184989700094	NA	NA	NA	NA	938.7349314000458	938.7349314000458	left	1	2.3041319004260004	NA	ABF	001	2026-03-12_14h07.30.665	MR	2023.1.0	59.906713253196834	NA
mr_images/3_b.png	mr_images/3_a_z_135.png	right	cw	135	NA	NA	NA	NA	0	213	213	92	941.0678375000134	NA	NA	NA	NA	941.6178453001194	941.6178453001194	left	0	4.259777700062841	NA	ABF	001	2026-03-12_14h07.30.665	MR	2023.1.0	59.906713253196834	NA
mr_images/3_a.png	mr_images/3_a_z_315.png	left	ccw	45	NA	NA	NA	NA	0	214	214	75	945.900964200031	NA	NA	NA	NA	946.4382571000606	946.4382571000606	left	1	2.2191745000891387	NA	ABF	001	2026-03-12_14h07.30.665	MR	2023.1.0	59.906713253196834	NA
mr_images/1_b.png	mr_images/1_b_z_225.png	left	ccw	135	NA	NA	NA	NA	0	215	215	23	948.6883212998508	NA	NA	NA	NA	949.2333492999896	949.2333492999896	right	0	2.5610894998535514	NA	ABF	001	2026-03-12_14h07.30.665	MR	2023.1.0	59.906713253196834	NA
NA	NA	NA	NA	NA	NA	NA	NA	NA	NA	NA	NA	NA	NA	NA	NA	NA	NA	NA	NA	NA	NA	NA	951.8200626000762	NA	NA	NA	NA	NA	NA	NA
