imagefile	stimfile	corrAns	MRdir	angle	training.thisRepN	training.thisTrialN	training.thisN	training.thisIndex	mentalrot_trials.thisRepN	mentalrot_trials.thisTrialN	mentalrot_trials.thisN	mentalrot_trials.thisIndex	blank.started	mr_answ_2.started	mr_answ_2.keys	mr_answ_2.corr	mr_answ_2.rt	blank.stopped	mr_answ.started	mr_answ.keys	mr_answ.corr	mr_answ.rt	byebye_text.started	byebye_text.stopped	participant	session	date	expName	psychopyVersion	frameRate	...32
mr_images/1_a.png	mr_images/1_b_z_135.png	right	cw	135	0	0	0	8	NA	NA	NA	NA	119.08846770017408	119.57258370006456	left	0	3.820556599879638	NA	NA	NA	NA	NA	NA	NA	taa	001	2026-02-19_20h06.23.762	MR	2023.1.0	60.02516251611566	NA
mr_images/7_b.png	mr_images/7_a_z_135.png	right	cw	135	0	1	1	188	NA	NA	NA	NA	123.42157060001044	124.01745160017164	None	0	NA	124.01745160017164	NA	NA	NA	NA	NA	NA	taa	001	2026-02-19_20h06.23.762	MR	2023.1.0	60.02516251611566	NA
mr_images/7_b.png	mr_images/7_b_z_45.png	left	cw	45	0	2	2	181	NA	NA	NA	NA	128.93338269996457	129.50169790000655	None	0	NA	NA	NA	NA	NA	NA	NA	NA	taa	001	2026-02-19_20h06.23.762	MR	2023.1.0	60.02516251611566	NA
mr_images/4_b.png	mr_images/4_b_z_225.png	left	ccw	135	0	3	3	119	NA	NA	NA	NA	134.43271140009165	135.03294920013286	right	0	4.269366199849173	NA	NA	NA	NA	NA	NA	NA	taa	001	2026-02-19_20h06.23.762	MR	2023.1.0	60.02516251611566	NA
mr_images/11_b.png	mr_images/11_b_z_45.png	left	cw	45	0	4	4	37	NA	NA	NA	NA	139.33182800002396	139.91940210014582	right	0	4.319719299906865	139.91940210014582	NA	NA	NA	NA	NA	NA	taa	001	2026-02-19_20h06.23.762	MR	2023.1.0	60.02516251611566	NA
mr_images/11_a.png	mr_images/11_b_z_135.png	right	cw	135	NA	NA	NA	NA	0	0	0	32	195.3945900001563	NA	NA	NA	NA	NA	195.8959931000136	None	0	NA	NA	NA	taa	001	2026-02-19_20h06.23.762	MR	2023.1.0	60.02516251611566	NA
mr_images/11_b.png	mr_images/11_a_z_270.png	right	ccw	90	NA	NA	NA	NA	0	1	1	42	200.7941757000517	NA	NA	NA	NA	NA	201.35665019997396	left	0	4.040760099887848	NA	NA	taa	001	2026-02-19_20h06.23.762	MR	2023.1.0	60.02516251611566	NA
mr_images/12_a.png	mr_images/12_a_z_135.png	left	cw	135	NA	NA	NA	NA	0	2	2	57	205.4227414000779	NA	NA	NA	NA	206.02275260002352	206.02275260002352	left	1	3.396004799986258	NA	NA	taa	001	2026-02-19_20h06.23.762	MR	2023.1.0	60.02516251611566	NA
mr_images/3_b.png	mr_images/3_b_z_90.png	left	cw	90	NA	NA	NA	NA	0	3	3	89	209.43882210017185	NA	NA	NA	NA	210.0225294001866	210.0225294001866	left	1	4.6423678998835385	NA	NA	taa	001	2026-02-19_20h06.23.762	MR	2023.1.0	60.02516251611566	NA
mr_images/4_b.png	mr_images/4_a_z_45.png	right	cw	45	NA	NA	NA	NA	0	4	4	108	214.68815070018172	NA	NA	NA	NA	215.25479200016707	215.25479200016707	right	1	3.3934433998074383	NA	NA	taa	001	2026-02-19_20h06.23.762	MR	2023.1.0	60.02516251611566	NA
mr_images/12_b.png	mr_images/12_b_z_315.png	left	ccw	45	NA	NA	NA	NA	0	5	5	63	218.6716649001464	NA	NA	NA	NA	219.2602761001326	219.2602761001326	None	0	NA	NA	NA	taa	001	2026-02-19_20h06.23.762	MR	2023.1.0	60.02516251611566	NA
mr_images/6_b.png	mr_images/6_a_z_315.png	right	ccw	45	NA	NA	NA	NA	0	6	6	158	224.18692110013217	NA	NA	NA	NA	NA	224.78679960011505	left	0	4.847016399959102	NA	NA	taa	001	2026-02-19_20h06.23.762	MR	2023.1.0	60.02516251611566	NA
mr_images/7_a.png	mr_images/7_a_z_45.png	left	cw	45	NA	NA	NA	NA	0	7	7	169	229.6526989999693	NA	NA	NA	NA	230.23610109998845	230.23610109998845	None	0	NA	NA	NA	taa	001	2026-02-19_20h06.23.762	MR	2023.1.0	60.02516251611566	NA
mr_images/3_b.png	mr_images/3_a_z_90.png	right	cw	90	NA	NA	NA	NA	0	8	8	88	235.1686860001646	NA	NA	NA	NA	NA	235.7352483000141	None	0	NA	NA	NA	taa	001	2026-02-19_20h06.23.762	MR	2023.1.0	60.02516251611566	NA
mr_images/9_a.png	mr_images/9_b_z_315.png	right	ccw	45	NA	NA	NA	NA	0	9	9	194	240.66755320015363	NA	NA	NA	NA	NA	241.2346789999865	left	0	4.380667599849403	NA	NA	taa	001	2026-02-19_20h06.23.762	MR	2023.1.0	60.02516251611566	NA
mr_images/6_a.png	mr_images/6_a_z_315.png	left	ccw	45	NA	NA	NA	NA	0	10	10	147	245.63384949998	NA	NA	NA	NA	246.20103390002623	246.20103390002623	None	0	NA	NA	NA	taa	001	2026-02-19_20h06.23.762	MR	2023.1.0	60.02516251611566	NA
mr_images/12_a.png	mr_images/12_a_z_315.png	left	ccw	45	NA	NA	NA	NA	0	11	11	51	251.1497816001065	NA	NA	NA	NA	NA	251.72005840018392	left	1	3.877252899808809	NA	NA	taa	001	2026-02-19_20h06.23.762	MR	2023.1.0	60.02516251611566	NA
mr_images/4_b.png	mr_images/4_b_z_90.png	left	cw	90	NA	NA	NA	NA	0	12	12	113	255.6200400001835	NA	NA	NA	NA	256.19915890018456	256.19915890018456	left	1	4.353059199871495	NA	NA	taa	001	2026-02-19_20h06.23.762	MR	2023.1.0	60.02516251611566	NA
mr_images/11_b.png	mr_images/11_b_z_90.png	left	cw	90	NA	NA	NA	NA	0	13	13	41	260.5817958000116	NA	NA	NA	NA	261.1492662001401	261.1492662001401	right	0	4.846298199845478	NA	NA	taa	001	2026-02-19_20h06.23.762	MR	2023.1.0	60.02516251611566	NA
mr_images/5_b.png	mr_images/5_a_z_225.png	right	ccw	135	NA	NA	NA	NA	0	14	14	142	266.01415659999475	NA	NA	NA	NA	266.61425890005194	266.61425890005194	right	1	4.633322299923748	NA	NA	taa	001	2026-02-19_20h06.23.762	MR	2023.1.0	60.02516251611566	NA
mr_images/9_b.png	mr_images/9_b_z_315.png	left	ccw	45	NA	NA	NA	NA	0	15	15	207	271.2637055001687	NA	NA	NA	NA	271.83018800010905	271.83018800010905	right	0	4.7059726000297815	NA	NA	taa	001	2026-02-19_20h06.23.762	MR	2023.1.0	60.02516251611566	NA
mr_images/7_b.png	mr_images/7_b_z_45.png	left	cw	45	NA	NA	NA	NA	0	16	16	181	276.56300389999524	NA	NA	NA	NA	277.1023574999999	277.1023574999999	None	0	NA	NA	NA	taa	001	2026-02-19_20h06.23.762	MR	2023.1.0	60.02516251611566	NA
mr_images/5_b.png	mr_images/5_a_z_90.png	right	cw	90	NA	NA	NA	NA	0	17	17	136	282.0788163000252	NA	NA	NA	NA	NA	282.6620867999736	right	1	3.601607199991122	NA	NA	taa	001	2026-02-19_20h06.23.762	MR	2023.1.0	60.02516251611566	NA
mr_images/5_b.png	mr_images/5_a_z_135.png	right	cw	135	NA	NA	NA	NA	0	18	18	140	286.29527520015836	NA	NA	NA	NA	286.8614203000907	286.8614203000907	left	0	4.7515286998823285	NA	NA	taa	001	2026-02-19_20h06.23.762	MR	2023.1.0	60.02516251611566	NA
mr_images/6_b.png	mr_images/6_a_z_135.png	right	cw	135	NA	NA	NA	NA	0	19	19	164	291.6441476000473	NA	NA	NA	NA	292.2107216999866	292.2107216999866	left	0	4.452510300092399	NA	NA	taa	001	2026-02-19_20h06.23.762	MR	2023.1.0	60.02516251611566	NA
mr_images/9_a.png	mr_images/9_b_z_45.png	right	cw	45	NA	NA	NA	NA	0	20	20	192	296.69384069996886	NA	NA	NA	NA	297.24308639997616	297.24308639997616	right	1	4.429334699874744	NA	NA	taa	001	2026-02-19_20h06.23.762	MR	2023.1.0	60.02516251611566	NA
mr_images/12_b.png	mr_images/12_b_z_135.png	left	cw	135	NA	NA	NA	NA	0	21	21	69	301.6927838001866	NA	NA	NA	NA	302.2593005001545	302.2593005001545	left	1	2.3343286998569965	NA	NA	taa	001	2026-02-19_20h06.23.762	MR	2023.1.0	60.02516251611566	NA
mr_images/7_a.png	mr_images/7_b_z_45.png	right	cw	45	NA	NA	NA	NA	0	22	22	168	304.62574170017615	NA	NA	NA	NA	305.15914270002395	305.15914270002395	left	0	4.558664499782026	NA	NA	taa	001	2026-02-19_20h06.23.762	MR	2023.1.0	60.02516251611566	NA
mr_images/3_b.png	mr_images/3_b_z_315.png	left	ccw	45	NA	NA	NA	NA	0	23	23	87	309.74164700019173	NA	NA	NA	NA	310.29650410008617	310.29650410008617	None	0	NA	NA	NA	taa	001	2026-02-19_20h06.23.762	MR	2023.1.0	60.02516251611566	NA
mr_images/4_a.png	mr_images/4_a_z_135.png	left	cw	135	NA	NA	NA	NA	0	24	24	105	315.24495270010084	NA	NA	NA	NA	NA	315.8297333000228	left	1	2.1774804999586195	NA	NA	taa	001	2026-02-19_20h06.23.762	MR	2023.1.0	60.02516251611566	NA
mr_images/1_b.png	mr_images/1_b_z_225.png	left	ccw	135	NA	NA	NA	NA	0	25	25	23	318.02787740016356	NA	NA	NA	NA	318.6115988001693	318.6115988001693	left	1	3.203531199833378	NA	NA	taa	001	2026-02-19_20h06.23.762	MR	2023.1.0	60.02516251611566	NA
mr_images/4_b.png	mr_images/4_a_z_270.png	right	ccw	90	NA	NA	NA	NA	0	26	26	114	321.8441557001788	NA	NA	NA	NA	322.4065440001432	322.4065440001432	left	0	2.379756099777296	NA	NA	taa	001	2026-02-19_20h06.23.762	MR	2023.1.0	60.02516251611566	NA
mr_images/6_a.png	mr_images/6_a_z_90.png	left	cw	90	NA	NA	NA	NA	0	27	27	149	324.8062205000315	NA	NA	NA	NA	325.3727877000347	325.3727877000347	left	1	2.2281880998052657	NA	NA	taa	001	2026-02-19_20h06.23.762	MR	2023.1.0	60.02516251611566	NA
mr_images/9_b.png	mr_images/9_b_z_90.png	left	cw	90	NA	NA	NA	NA	0	28	28	209	327.6229622999672	NA	NA	NA	NA	328.1891595001798	328.1891595001798	right	0	3.0599638000130653	NA	NA	taa	001	2026-02-19_20h06.23.762	MR	2023.1.0	60.02516251611566	NA
mr_images/11_b.png	mr_images/11_a_z_90.png	right	cw	90	NA	NA	NA	NA	0	29	29	40	331.27196290018037	NA	NA	NA	NA	331.8386065000668	331.8386065000668	left	0	2.0200461000204086	NA	NA	taa	001	2026-02-19_20h06.23.762	MR	2023.1.0	60.02516251611566	NA
mr_images/1_b.png	mr_images/1_a_z_225.png	right	ccw	135	NA	NA	NA	NA	0	30	30	22	333.8883126999717	NA	NA	NA	NA	334.4549488001503	334.4549488001503	right	1	3.7984117998275906	NA	NA	taa	001	2026-02-19_20h06.23.762	MR	2023.1.0	60.02516251611566	NA
mr_images/3_b.png	mr_images/3_a_z_135.png	right	cw	135	NA	NA	NA	NA	0	31	31	92	338.27104650018737	NA	NA	NA	NA	338.83899140008725	338.83899140008725	left	0	3.301593299722299	NA	NA	taa	001	2026-02-19_20h06.23.762	MR	2023.1.0	60.02516251611566	NA
mr_images/6_b.png	mr_images/6_b_z_315.png	left	ccw	45	NA	NA	NA	NA	0	32	32	159	342.15788790001534	NA	NA	NA	NA	342.70787020004354	342.70787020004354	left	1	1.3788273998070508	NA	NA	taa	001	2026-02-19_20h06.23.762	MR	2023.1.0	60.02516251611566	NA
mr_images/1_b.png	mr_images/1_a_z_90.png	right	cw	90	NA	NA	NA	NA	0	33	33	16	344.1075587000232	NA	NA	NA	NA	344.6732869001571	344.6732869001571	right	1	4.037299299845472	NA	NA	taa	001	2026-02-19_20h06.23.762	MR	2023.1.0	60.02516251611566	NA
mr_images/4_a.png	mr_images/4_b_z_270.png	right	ccw	90	NA	NA	NA	NA	0	34	34	102	348.74027100019157	NA	NA	NA	NA	349.30399479996413	349.30399479996413	left	0	3.275914099998772	NA	NA	taa	001	2026-02-19_20h06.23.762	MR	2023.1.0	60.02516251611566	NA
mr_images/12_b.png	mr_images/12_a_z_225.png	right	ccw	135	NA	NA	NA	NA	0	35	35	70	352.6023387000896	NA	NA	NA	NA	353.1695461999625	353.1695461999625	left	0	2.774396900087595	NA	NA	taa	001	2026-02-19_20h06.23.762	MR	2023.1.0	60.02516251611566	NA
mr_images/6_b.png	mr_images/6_a_z_45.png	right	cw	45	NA	NA	NA	NA	0	36	36	156	355.9685560001526	NA	NA	NA	NA	356.5360787000973	356.5360787000973	left	0	3.837076799944043	NA	NA	taa	001	2026-02-19_20h06.23.762	MR	2023.1.0	60.02516251611566	NA
mr_images/3_a.png	mr_images/3_b_z_270.png	right	ccw	90	NA	NA	NA	NA	0	37	37	78	360.38872759998776	NA	NA	NA	NA	360.9845728001091	360.9845728001091	None	0	NA	NA	NA	taa	001	2026-02-19_20h06.23.762	MR	2023.1.0	60.02516251611566	NA
mr_images/6_a.png	mr_images/6_a_z_135.png	left	cw	135	NA	NA	NA	NA	0	38	38	153	365.9003924001008	NA	NA	NA	NA	NA	366.4337248001248	right	0	4.421272599836811	NA	NA	taa	001	2026-02-19_20h06.23.762	MR	2023.1.0	60.02516251611566	NA
mr_images/6_a.png	mr_images/6_a_z_45.png	left	cw	45	NA	NA	NA	NA	0	39	39	145	370.8831544001587	NA	NA	NA	NA	371.401904999977	371.401904999977	right	0	2.874457199824974	NA	NA	taa	001	2026-02-19_20h06.23.762	MR	2023.1.0	60.02516251611566	NA
mr_images/11_b.png	mr_images/11_b_z_135.png	left	cw	135	NA	NA	NA	NA	0	40	40	45	374.2992975001689	NA	NA	NA	NA	374.8339103001635	374.8339103001635	left	1	4.1682594998274	NA	NA	taa	001	2026-02-19_20h06.23.762	MR	2023.1.0	60.02516251611566	NA
mr_images/6_b.png	mr_images/6_a_z_225.png	right	ccw	135	NA	NA	NA	NA	0	41	41	166	379.0324411001056	NA	NA	NA	NA	379.5838258001022	379.5838258001022	left	0	3.9103961000218983	NA	NA	taa	001	2026-02-19_20h06.23.762	MR	2023.1.0	60.02516251611566	NA
mr_images/6_a.png	mr_images/6_a_z_270.png	left	ccw	90	NA	NA	NA	NA	0	42	42	151	383.514612799976	NA	NA	NA	NA	384.0813627000898	384.0813627000898	right	0	3.1238823998719454	NA	NA	taa	001	2026-02-19_20h06.23.762	MR	2023.1.0	60.02516251611566	NA
mr_images/5_a.png	mr_images/5_b_z_315.png	right	ccw	45	NA	NA	NA	NA	0	43	43	122	387.23089420003816	NA	NA	NA	NA	387.81807800009847	387.81807800009847	left	0	2.71660659997724	NA	NA	taa	001	2026-02-19_20h06.23.762	MR	2023.1.0	60.02516251611566	NA
mr_images/7_b.png	mr_images/7_b_z_315.png	left	ccw	45	NA	NA	NA	NA	0	44	44	183	390.5513581000269	NA	NA	NA	NA	391.1193556000944	391.1193556000944	right	0	2.1965719999279827	NA	NA	taa	001	2026-02-19_20h06.23.762	MR	2023.1.0	60.02516251611566	NA
mr_images/7_b.png	mr_images/7_a_z_315.png	right	ccw	45	NA	NA	NA	NA	0	45	45	182	393.33444170001894	NA	NA	NA	NA	393.9134309000802	393.9134309000802	left	0	3.315929299686104	NA	NA	taa	001	2026-02-19_20h06.23.762	MR	2023.1.0	60.02516251611566	NA
mr_images/6_a.png	mr_images/6_b_z_45.png	right	cw	45	NA	NA	NA	NA	0	46	46	144	397.2460835000966	NA	NA	NA	NA	397.8007041001693	397.8007041001693	left	0	2.9293717998079956	NA	NA	taa	001	2026-02-19_20h06.23.762	MR	2023.1.0	60.02516251611566	NA
mr_images/12_a.png	mr_images/12_b_z_135.png	right	cw	135	NA	NA	NA	NA	0	47	47	56	400.76206480013207	NA	NA	NA	NA	NA	401.29551470000297	right	1	3.160711099859327	NA	NA	taa	001	2026-02-19_20h06.23.762	MR	2023.1.0	60.02516251611566	NA
mr_images/6_a.png	mr_images/6_b_z_135.png	right	cw	135	NA	NA	NA	NA	0	48	48	152	404.4784681000747	NA	NA	NA	NA	405.04509430006146	405.04509430006146	right	1	3.105268699815497	NA	NA	taa	001	2026-02-19_20h06.23.762	MR	2023.1.0	60.02516251611566	NA
mr_images/11_a.png	mr_images/11_b_z_90.png	right	cw	90	NA	NA	NA	NA	0	49	49	28	408.1780451000668	NA	NA	NA	NA	NA	408.7111665001139	right	1	2.6195119998883456	NA	NA	taa	001	2026-02-19_20h06.23.762	MR	2023.1.0	60.02516251611566	NA
mr_images/9_b.png	mr_images/9_b_z_135.png	left	cw	135	NA	NA	NA	NA	0	50	50	213	411.36082150018774	NA	NA	NA	NA	411.9271962000057	411.9271962000057	right	0	3.3258695998229086	NA	NA	taa	001	2026-02-19_20h06.23.762	MR	2023.1.0	60.02516251611566	NA
mr_images/12_b.png	mr_images/12_b_z_225.png	left	ccw	135	NA	NA	NA	NA	0	51	51	71	415.27700440003537	NA	NA	NA	NA	415.84322779998183	415.84322779998183	right	0	3.18374629993923	NA	NA	taa	001	2026-02-19_20h06.23.762	MR	2023.1.0	60.02516251611566	NA
mr_images/9_a.png	mr_images/9_a_z_225.png	left	ccw	135	NA	NA	NA	NA	0	52	52	203	419.04316820017993	NA	NA	NA	NA	419.6100064001512	419.6100064001512	right	0	4.507975899847224	NA	NA	taa	001	2026-02-19_20h06.23.762	MR	2023.1.0	60.02516251611566	NA
mr_images/3_b.png	mr_images/3_a_z_225.png	right	ccw	135	NA	NA	NA	NA	0	53	53	94	424.14238320011646	NA	NA	NA	NA	424.711858100025	424.711858100025	right	1	3.264348400058225	NA	NA	taa	001	2026-02-19_20h06.23.762	MR	2023.1.0	60.02516251611566	NA
mr_images/5_b.png	mr_images/5_b_z_90.png	left	cw	90	NA	NA	NA	NA	0	54	54	137	427.9961882999633	NA	NA	NA	NA	428.57508590002544	428.57508590002544	right	0	3.7355953997466713	NA	NA	taa	001	2026-02-19_20h06.23.762	MR	2023.1.0	60.02516251611566	NA
mr_images/11_a.png	mr_images/11_b_z_270.png	right	ccw	90	NA	NA	NA	NA	0	55	55	30	432.3417855000589	NA	NA	NA	NA	432.9082985999994	432.9082985999994	right	1	4.303392400033772	NA	NA	taa	001	2026-02-19_20h06.23.762	MR	2023.1.0	60.02516251611566	NA
mr_images/5_a.png	mr_images/5_b_z_45.png	right	cw	45	NA	NA	NA	NA	0	56	56	120	437.2405606000684	NA	NA	NA	NA	437.8114838001784	437.8114838001784	right	1	3.6644764998927712	NA	NA	taa	001	2026-02-19_20h06.23.762	MR	2023.1.0	60.02516251611566	NA
mr_images/1_a.png	mr_images/1_b_z_270.png	right	ccw	90	NA	NA	NA	NA	0	57	57	6	441.4944123001769	NA	NA	NA	NA	442.07340049999766	442.07340049999766	right	1	3.393387599848211	NA	NA	taa	001	2026-02-19_20h06.23.762	MR	2023.1.0	60.02516251611566	NA
mr_images/9_b.png	mr_images/9_a_z_270.png	right	ccw	90	NA	NA	NA	NA	0	58	58	210	445.48941260017455	NA	NA	NA	NA	446.0560808000155	446.0560808000155	left	0	3.1537514000665396	NA	NA	taa	001	2026-02-19_20h06.23.762	MR	2023.1.0	60.02516251611566	NA
mr_images/4_a.png	mr_images/4_a_z_90.png	left	cw	90	NA	NA	NA	NA	0	59	59	101	449.2389235000592	NA	NA	NA	NA	449.8055873999838	449.8055873999838	left	1	2.1198295997455716	NA	NA	taa	001	2026-02-19_20h06.23.762	MR	2023.1.0	60.02516251611566	NA
mr_images/11_a.png	mr_images/11_b_z_315.png	right	ccw	45	NA	NA	NA	NA	0	60	60	26	451.9552362000104	NA	NA	NA	NA	452.52170519996434	452.52170519996434	left	0	2.442062799818814	NA	NA	taa	001	2026-02-19_20h06.23.762	MR	2023.1.0	60.02516251611566	NA
mr_images/9_a.png	mr_images/9_a_z_45.png	left	cw	45	NA	NA	NA	NA	0	61	61	193	454.9880350001622	NA	NA	NA	NA	455.5444416999817	455.5444416999817	right	0	2.6340541997924447	NA	NA	taa	001	2026-02-19_20h06.23.762	MR	2023.1.0	60.02516251611566	NA
mr_images/5_a.png	mr_images/5_b_z_225.png	right	ccw	135	NA	NA	NA	NA	0	62	62	130	458.2084224000573	NA	NA	NA	NA	NA	458.77663270011544	right	1	2.264829599764198	NA	NA	taa	001	2026-02-19_20h06.23.762	MR	2023.1.0	60.02516251611566	NA
mr_images/12_a.png	mr_images/12_b_z_315.png	right	ccw	45	NA	NA	NA	NA	0	63	63	50	461.0580382000189	NA	NA	NA	NA	461.5899865999818	461.5899865999818	left	0	1.0165530999656769	NA	NA	taa	001	2026-02-19_20h06.23.762	MR	2023.1.0	60.02516251611566	NA
mr_images/1_b.png	mr_images/1_b_z_315.png	left	ccw	45	NA	NA	NA	NA	0	64	64	15	462.6245586001314	NA	NA	NA	NA	463.1911830999889	463.1911830999889	left	1	2.3252266999334097	NA	NA	taa	001	2026-02-19_20h06.23.762	MR	2023.1.0	60.02516251611566	NA
mr_images/12_a.png	mr_images/12_b_z_45.png	right	cw	45	NA	NA	NA	NA	0	65	65	48	465.54112370009534	NA	NA	NA	NA	466.1052476000041	466.1052476000041	left	0	2.825335199944675	NA	NA	taa	001	2026-02-19_20h06.23.762	MR	2023.1.0	60.02516251611566	NA
mr_images/1_b.png	mr_images/1_b_z_135.png	left	cw	135	NA	NA	NA	NA	0	66	66	21	468.957289500162	NA	NA	NA	NA	469.4906515001785	469.4906515001785	right	0	4.25279499986209	NA	NA	taa	001	2026-02-19_20h06.23.762	MR	2023.1.0	60.02516251611566	NA
mr_images/4_a.png	mr_images/4_b_z_225.png	right	ccw	135	NA	NA	NA	NA	0	67	67	106	473.7732740000356	NA	NA	NA	NA	474.3189299001824	474.3189299001824	left	0	2.5253929998725653	NA	NA	taa	001	2026-02-19_20h06.23.762	MR	2023.1.0	60.02516251611566	NA
mr_images/4_b.png	mr_images/4_b_z_45.png	left	cw	45	NA	NA	NA	NA	0	68	68	109	476.8684324000496	NA	NA	NA	NA	477.4234812001232	477.4234812001232	left	1	2.351912099868059	NA	NA	taa	001	2026-02-19_20h06.23.762	MR	2023.1.0	60.02516251611566	NA
mr_images/11_b.png	mr_images/11_a_z_135.png	right	cw	135	NA	NA	NA	NA	0	69	69	44	479.8054988000076	NA	NA	NA	NA	480.3704788000323	480.3704788000323	left	0	3.138041399884969	NA	NA	taa	001	2026-02-19_20h06.23.762	MR	2023.1.0	60.02516251611566	NA
mr_images/7_a.png	mr_images/7_a_z_225.png	left	ccw	135	NA	NA	NA	NA	0	70	70	179	483.5382789000869	NA	NA	NA	NA	484.10132510005496	484.10132510005496	left	1	2.8111878999043256	NA	NA	taa	001	2026-02-19_20h06.23.762	MR	2023.1.0	60.02516251611566	NA
mr_images/5_a.png	mr_images/5_b_z_270.png	right	ccw	90	NA	NA	NA	NA	0	71	71	126	486.93717649998143	NA	NA	NA	NA	487.5001217001118	487.5001217001118	right	1	1.89445439982228	NA	NA	taa	001	2026-02-19_20h06.23.762	MR	2023.1.0	60.02516251611566	NA
mr_images/9_a.png	mr_images/9_a_z_90.png	left	cw	90	NA	NA	NA	NA	0	72	72	197	489.4166477001272	NA	NA	NA	NA	489.9879871001467	489.9879871001467	left	1	2.1916794998105615	NA	NA	taa	001	2026-02-19_20h06.23.762	MR	2023.1.0	60.02516251611566	NA
mr_images/12_b.png	mr_images/12_a_z_270.png	right	ccw	90	NA	NA	NA	NA	0	73	73	66	492.20372440014035	NA	NA	NA	NA	492.7492893000599	492.7492893000599	right	1	2.2046840998809785	NA	NA	taa	001	2026-02-19_20h06.23.762	MR	2023.1.0	60.02516251611566	NA
mr_images/5_a.png	mr_images/5_a_z_90.png	left	cw	90	NA	NA	NA	NA	0	74	74	125	494.982536500087	NA	NA	NA	NA	495.5324513001833	495.5324513001833	left	1	3.126744399778545	NA	NA	taa	001	2026-02-19_20h06.23.762	MR	2023.1.0	60.02516251611566	NA
mr_images/3_a.png	mr_images/3_a_z_90.png	left	cw	90	NA	NA	NA	NA	0	75	75	77	498.6821851001587	NA	NA	NA	NA	499.21689050015993	499.21689050015993	right	0	1.8317051997873932	NA	NA	taa	001	2026-02-19_20h06.23.762	MR	2023.1.0	60.02516251611566	NA
mr_images/5_b.png	mr_images/5_a_z_270.png	right	ccw	90	NA	NA	NA	NA	0	76	76	138	501.0691937000957	NA	NA	NA	NA	501.6325328000821	501.6325328000821	left	0	2.7549948999658227	NA	NA	taa	001	2026-02-19_20h06.23.762	MR	2023.1.0	60.02516251611566	NA
mr_images/1_b.png	mr_images/1_a_z_315.png	right	ccw	45	NA	NA	NA	NA	0	77	77	14	504.41469350014813	NA	NA	NA	NA	504.9843503001612	504.9843503001612	left	0	2.0872843000106514	NA	NA	taa	001	2026-02-19_20h06.23.762	MR	2023.1.0	60.02516251611566	NA
mr_images/9_a.png	mr_images/9_b_z_225.png	right	ccw	135	NA	NA	NA	NA	0	78	78	202	507.101748800138	NA	NA	NA	NA	507.68093989999034	507.68093989999034	right	1	1.7512175999581814	NA	NA	taa	001	2026-02-19_20h06.23.762	MR	2023.1.0	60.02516251611566	NA
mr_images/4_b.png	mr_images/4_b_z_315.png	left	ccw	45	NA	NA	NA	NA	0	79	79	111	509.4639740001876	NA	NA	NA	NA	510.0305206000339	510.0305206000339	left	1	1.5042922999709845	NA	NA	taa	001	2026-02-19_20h06.23.762	MR	2023.1.0	60.02516251611566	NA
mr_images/7_b.png	mr_images/7_a_z_135.png	right	cw	135	NA	NA	NA	NA	0	80	80	188	511.5635487001855	NA	NA	NA	NA	512.0968730000313	512.0968730000313	right	1	1.9732516000512987	NA	NA	taa	001	2026-02-19_20h06.23.762	MR	2023.1.0	60.02516251611566	NA
mr_images/4_b.png	mr_images/4_a_z_225.png	right	ccw	135	NA	NA	NA	NA	0	81	81	118	514.0964906001464	NA	NA	NA	NA	514.6660323000979	514.6660323000979	right	1	3.06659539998509	NA	NA	taa	001	2026-02-19_20h06.23.762	MR	2023.1.0	60.02516251611566	NA
mr_images/9_b.png	mr_images/9_a_z_315.png	right	ccw	45	NA	NA	NA	NA	0	82	82	206	517.7507680000272	NA	NA	NA	NA	518.3127356001642	518.3127356001642	left	0	2.4765552999451756	NA	NA	taa	001	2026-02-19_20h06.23.762	MR	2023.1.0	60.02516251611566	NA
mr_images/12_a.png	mr_images/12_b_z_270.png	right	ccw	90	NA	NA	NA	NA	0	83	83	54	520.8123372001573	NA	NA	NA	NA	521.3793476000428	521.3793476000428	right	1	1.4918720999266952	NA	NA	taa	001	2026-02-19_20h06.23.762	MR	2023.1.0	60.02516251611566	NA
mr_images/12_a.png	mr_images/12_a_z_45.png	left	cw	45	NA	NA	NA	NA	0	84	84	49	522.8954040000681	NA	NA	NA	NA	523.4621859001927	523.4621859001927	right	0	3.4778042999096215	NA	NA	taa	001	2026-02-19_20h06.23.762	MR	2023.1.0	60.02516251611566	NA
mr_images/1_a.png	mr_images/1_a_z_315.png	left	ccw	45	NA	NA	NA	NA	0	85	85	3	526.9615784001071	NA	NA	NA	NA	527.4946475999895	527.4946475999895	right	0	2.855827799998224	NA	NA	taa	001	2026-02-19_20h06.23.762	MR	2023.1.0	60.02516251611566	NA
mr_images/11_b.png	mr_images/11_a_z_315.png	right	ccw	45	NA	NA	NA	NA	0	86	86	38	530.3776697001886	NA	NA	NA	NA	530.9481067999732	530.9481067999732	left	0	2.0421360000036657	NA	NA	taa	001	2026-02-19_20h06.23.762	MR	2023.1.0	60.02516251611566	NA
mr_images/3_b.png	mr_images/3_b_z_225.png	left	ccw	135	NA	NA	NA	NA	0	87	87	95	533.0153244000394	NA	NA	NA	NA	533.5818606000394	533.5818606000394	right	0	2.753996799932793	NA	NA	taa	001	2026-02-19_20h06.23.762	MR	2023.1.0	60.02516251611566	NA
mr_images/7_b.png	mr_images/7_b_z_270.png	left	ccw	90	NA	NA	NA	NA	0	88	88	187	536.3645128000062	NA	NA	NA	NA	536.9279965001624	536.9279965001624	right	0	1.0750417998060584	NA	NA	taa	001	2026-02-19_20h06.23.762	MR	2023.1.0	60.02516251611566	NA
mr_images/3_b.png	mr_images/3_b_z_135.png	left	cw	135	NA	NA	NA	NA	0	89	89	93	538.0265630001668	NA	NA	NA	NA	538.5932263000868	538.5932263000868	right	0	1.0868097997736186	NA	NA	taa	001	2026-02-19_20h06.23.762	MR	2023.1.0	60.02516251611566	NA
mr_images/12_a.png	mr_images/12_a_z_90.png	left	cw	90	NA	NA	NA	NA	0	90	90	53	539.7095391000621	NA	NA	NA	NA	540.2462147001643	540.2462147001643	right	0	1.3820362000260502	NA	NA	taa	001	2026-02-19_20h06.23.762	MR	2023.1.0	60.02516251611566	NA
mr_images/7_a.png	mr_images/7_b_z_90.png	right	cw	90	NA	NA	NA	NA	0	91	91	172	541.6468762001023	NA	NA	NA	NA	542.212737099966	542.212737099966	right	1	1.6143826998304576	NA	NA	taa	001	2026-02-19_20h06.23.762	MR	2023.1.0	60.02516251611566	NA
mr_images/6_a.png	mr_images/6_b_z_90.png	right	cw	90	NA	NA	NA	NA	0	92	92	148	543.8465488001239	NA	NA	NA	NA	544.4135422999971	544.4135422999971	right	1	2.3988407999277115	NA	NA	taa	001	2026-02-19_20h06.23.762	MR	2023.1.0	60.02516251611566	NA
mr_images/7_a.png	mr_images/7_a_z_270.png	left	ccw	90	NA	NA	NA	NA	0	93	93	175	546.8295106000733	NA	NA	NA	NA	547.4111854999792	547.4111854999792	right	0	3.3561218997929245	NA	NA	taa	001	2026-02-19_20h06.23.762	MR	2023.1.0	60.02516251611566	NA
mr_images/11_a.png	mr_images/11_b_z_225.png	right	ccw	135	NA	NA	NA	NA	0	94	94	34	550.7958831000142	NA	NA	NA	NA	551.3754388000816	551.3754388000816	right	1	2.351049799937755	NA	NA	taa	001	2026-02-19_20h06.23.762	MR	2023.1.0	60.02516251611566	NA
mr_images/12_b.png	mr_images/12_a_z_135.png	right	cw	135	NA	NA	NA	NA	0	95	95	68	553.7610313000623	NA	NA	NA	NA	NA	554.2914938000031	right	1	1.9116580998525023	NA	NA	taa	001	2026-02-19_20h06.23.762	MR	2023.1.0	60.02516251611566	NA
mr_images/12_a.png	mr_images/12_b_z_90.png	right	cw	90	NA	NA	NA	NA	0	96	96	52	556.2241370000411	NA	NA	NA	NA	556.7906486999709	556.7906486999709	right	1	1.89298709994182	NA	NA	taa	001	2026-02-19_20h06.23.762	MR	2023.1.0	60.02516251611566	NA
mr_images/9_b.png	mr_images/9_a_z_90.png	right	cw	90	NA	NA	NA	NA	0	97	97	208	558.7070963999722	NA	NA	NA	NA	559.2445831999648	559.2445831999648	right	1	2.5379532997030765	NA	NA	taa	001	2026-02-19_20h06.23.762	MR	2023.1.0	60.02516251611566	NA
mr_images/1_a.png	mr_images/1_b_z_45.png	right	cw	45	NA	NA	NA	NA	0	98	98	0	561.8115866000298	NA	NA	NA	NA	562.3760226001032	562.3760226001032	right	1	3.8563473999965936	NA	NA	taa	001	2026-02-19_20h06.23.762	MR	2023.1.0	60.02516251611566	NA
mr_images/9_b.png	mr_images/9_a_z_45.png	right	cw	45	NA	NA	NA	NA	0	99	99	204	566.2601118001621	NA	NA	NA	NA	566.7895125001669	566.7895125001669	right	1	3.064231899799779	NA	NA	taa	001	2026-02-19_20h06.23.762	MR	2023.1.0	60.02516251611566	NA
mr_images/4_a.png	mr_images/4_a_z_45.png	left	cw	45	NA	NA	NA	NA	0	100	100	97	569.8722050001379	NA	NA	NA	NA	570.4105555000715	570.4105555000715	left	1	2.0336531000211835	NA	NA	taa	001	2026-02-19_20h06.23.762	MR	2023.1.0	60.02516251611566	NA
mr_images/9_a.png	mr_images/9_a_z_315.png	left	ccw	45	NA	NA	NA	NA	0	101	101	195	572.475959100062	NA	NA	NA	NA	573.0060046000872	573.0060046000872	right	0	1.3191779998596758	NA	NA	taa	001	2026-02-19_20h06.23.762	MR	2023.1.0	60.02516251611566	NA
mr_images/9_b.png	mr_images/9_b_z_225.png	left	ccw	135	NA	NA	NA	NA	0	102	102	215	574.354967399966	NA	NA	NA	NA	574.8881314001046	574.8881314001046	right	0	2.4201288998592645	NA	NA	taa	001	2026-02-19_20h06.23.762	MR	2023.1.0	60.02516251611566	NA
mr_images/6_b.png	mr_images/6_b_z_270.png	left	ccw	90	NA	NA	NA	NA	0	103	103	163	577.337847799994	NA	NA	NA	NA	577.9043275001459	577.9043275001459	right	0	1.7720761999953538	NA	NA	taa	001	2026-02-19_20h06.23.762	MR	2023.1.0	60.02516251611566	NA
mr_images/4_b.png	mr_images/4_b_z_270.png	left	ccw	90	NA	NA	NA	NA	0	104	104	115	579.7045740000904	NA	NA	NA	NA	580.2373873000033	580.2373873000033	right	0	1.4880470000207424	NA	NA	taa	001	2026-02-19_20h06.23.762	MR	2023.1.0	60.02516251611566	NA
mr_images/5_a.png	mr_images/5_b_z_90.png	right	cw	90	NA	NA	NA	NA	0	105	105	124	581.753890800057	NA	NA	NA	NA	582.2871056001168	582.2871056001168	right	1	1.911428399849683	NA	NA	taa	001	2026-02-19_20h06.23.762	MR	2023.1.0	60.02516251611566	NA
mr_images/4_b.png	mr_images/4_a_z_90.png	right	cw	90	NA	NA	NA	NA	0	106	106	112	584.2204529000446	NA	NA	NA	NA	584.7533405001741	584.7533405001741	right	1	3.011206999886781	NA	NA	taa	001	2026-02-19_20h06.23.762	MR	2023.1.0	60.02516251611566	NA
mr_images/3_b.png	mr_images/3_a_z_270.png	right	ccw	90	NA	NA	NA	NA	0	107	107	90	587.7862845000345	NA	NA	NA	NA	588.3358067001682	588.3358067001682	right	1	3.2697723999153823	NA	NA	taa	001	2026-02-19_20h06.23.762	MR	2023.1.0	60.02516251611566	NA
mr_images/7_a.png	mr_images/7_a_z_135.png	left	cw	135	NA	NA	NA	NA	0	108	108	177	591.6358372000977	NA	NA	NA	NA	592.1690422999673	592.1690422999673	right	0	1.8946048996876923	NA	NA	taa	001	2026-02-19_20h06.23.762	MR	2023.1.0	60.02516251611566	NA
mr_images/1_a.png	mr_images/1_b_z_135.png	right	cw	135	NA	NA	NA	NA	0	109	109	8	594.0855737000238	NA	NA	NA	NA	594.618652000092	594.618652000092	right	1	1.0409973999485371	NA	NA	taa	001	2026-02-19_20h06.23.762	MR	2023.1.0	60.02516251611566	NA
mr_images/11_a.png	mr_images/11_a_z_135.png	left	cw	135	NA	NA	NA	NA	0	110	110	33	595.6852911000606	NA	NA	NA	NA	596.2185453001875	596.2185453001875	right	0	2.484088899800554	NA	NA	taa	001	2026-02-19_20h06.23.762	MR	2023.1.0	60.02516251611566	NA
mr_images/9_a.png	mr_images/9_b_z_135.png	right	cw	135	NA	NA	NA	NA	0	111	111	200	598.7182056000456	NA	NA	NA	NA	599.2679284000769	599.2679284000769	right	1	2.2549615998286754	NA	NA	taa	001	2026-02-19_20h06.23.762	MR	2023.1.0	60.02516251611566	NA
mr_images/5_a.png	mr_images/5_a_z_315.png	left	ccw	45	NA	NA	NA	NA	0	112	112	123	601.5514854001813	NA	NA	NA	NA	602.1175999001134	602.1175999001134	left	1	3.40796159976162	NA	NA	taa	001	2026-02-19_20h06.23.762	MR	2023.1.0	60.02516251611566	NA
mr_images/11_a.png	mr_images/11_a_z_90.png	left	cw	90	NA	NA	NA	NA	0	113	113	29	605.5505753001198	NA	NA	NA	NA	606.0834884000942	606.0834884000942	right	0	1.5834937999024987	NA	NA	taa	001	2026-02-19_20h06.23.762	MR	2023.1.0	60.02516251611566	NA
mr_images/1_a.png	mr_images/1_a_z_45.png	left	cw	45	NA	NA	NA	NA	0	114	114	1	607.6836314001121	NA	NA	NA	NA	608.251353800064	608.251353800064	right	0	2.3734786997083575	NA	NA	taa	001	2026-02-19_20h06.23.762	MR	2023.1.0	60.02516251611566	NA
mr_images/12_b.png	mr_images/12_b_z_270.png	left	ccw	90	NA	NA	NA	NA	0	115	115	67	610.6499412001576	NA	NA	NA	NA	611.1834969001357	611.1834969001357	right	0	1.7780140999238938	NA	NA	taa	001	2026-02-19_20h06.23.762	MR	2023.1.0	60.02516251611566	NA
mr_images/3_a.png	mr_images/3_b_z_135.png	right	cw	135	NA	NA	NA	NA	0	116	116	80	612.9829802999739	NA	NA	NA	NA	613.5178861999884	613.5178861999884	left	0	3.9336164998821914	NA	NA	taa	001	2026-02-19_20h06.23.762	MR	2023.1.0	60.02516251611566	NA
mr_images/11_a.png	mr_images/11_a_z_45.png	left	cw	45	NA	NA	NA	NA	0	117	117	25	617.4696852001362	NA	NA	NA	NA	618.0380138000473	618.0380138000473	right	0	2.286883099935949	NA	NA	taa	001	2026-02-19_20h06.23.762	MR	2023.1.0	60.02516251611566	NA
mr_images/5_b.png	mr_images/5_b_z_270.png	left	ccw	90	NA	NA	NA	NA	0	118	118	139	620.3531460000668	NA	NA	NA	NA	620.8848998001777	620.8848998001777	right	0	3.567051799967885	NA	NA	taa	001	2026-02-19_20h06.23.762	MR	2023.1.0	60.02516251611566	NA
mr_images/7_a.png	mr_images/7_a_z_90.png	left	cw	90	NA	NA	NA	NA	0	119	119	173	624.4687052001245	NA	NA	NA	NA	625.031248900108	625.031248900108	right	0	3.40572729986161	NA	NA	taa	001	2026-02-19_20h06.23.762	MR	2023.1.0	60.02516251611566	NA
mr_images/7_b.png	mr_images/7_a_z_90.png	right	cw	90	NA	NA	NA	NA	0	120	120	184	628.4641009999905	NA	NA	NA	NA	628.9973731001373	628.9973731001373	right	1	1.8048877997789532	NA	NA	taa	001	2026-02-19_20h06.23.762	MR	2023.1.0	60.02516251611566	NA
mr_images/5_b.png	mr_images/5_b_z_45.png	left	cw	45	NA	NA	NA	NA	0	121	121	133	630.8303886000067	NA	NA	NA	NA	631.3636543999892	631.3636543999892	right	0	1.4973563000094146	NA	NA	taa	001	2026-02-19_20h06.23.762	MR	2023.1.0	60.02516251611566	NA
mr_images/7_b.png	mr_images/7_a_z_270.png	right	ccw	90	NA	NA	NA	NA	0	122	122	186	632.8801535000093	NA	NA	NA	NA	633.4137165001594	633.4137165001594	right	1	1.6316968000028282	NA	NA	taa	001	2026-02-19_20h06.23.762	MR	2023.1.0	60.02516251611566	NA
mr_images/6_b.png	mr_images/6_b_z_45.png	left	cw	45	NA	NA	NA	NA	0	123	123	157	635.0631933000404	NA	NA	NA	NA	635.5964171001688	635.5964171001688	right	0	2.7518951997626573	NA	NA	taa	001	2026-02-19_20h06.23.762	MR	2023.1.0	60.02516251611566	NA
mr_images/4_b.png	mr_images/4_a_z_135.png	right	cw	135	NA	NA	NA	NA	0	124	124	116	638.3793651000597	NA	NA	NA	NA	638.9125518000219	638.9125518000219	left	0	1.5640481000300497	NA	NA	taa	001	2026-02-19_20h06.23.762	MR	2023.1.0	60.02516251611566	NA
mr_images/11_a.png	mr_images/11_b_z_45.png	right	cw	45	NA	NA	NA	NA	0	125	125	24	640.4957918999717	NA	NA	NA	NA	641.045726899989	641.045726899989	right	1	1.7489201999269426	NA	NA	taa	001	2026-02-19_20h06.23.762	MR	2023.1.0	60.02516251611566	NA
mr_images/11_b.png	mr_images/11_b_z_315.png	left	ccw	45	NA	NA	NA	NA	0	126	126	39	642.8126282000449	NA	NA	NA	NA	643.3458106999751	643.3458106999751	right	0	3.192387199960649	NA	NA	taa	001	2026-02-19_20h06.23.762	MR	2023.1.0	60.02516251611566	NA
mr_images/12_a.png	mr_images/12_a_z_225.png	left	ccw	135	NA	NA	NA	NA	0	127	127	59	646.5615334000904	NA	NA	NA	NA	647.0948795999866	647.0948795999866	left	1	3.118426499888301	NA	NA	taa	001	2026-02-19_20h06.23.762	MR	2023.1.0	60.02516251611566	NA
mr_images/3_a.png	mr_images/3_b_z_225.png	right	ccw	135	NA	NA	NA	NA	0	128	128	82	650.2610188000835	NA	NA	NA	NA	NA	650.7942270999774	right	1	2.006354099838063	NA	NA	taa	001	2026-02-19_20h06.23.762	MR	2023.1.0	60.02516251611566	NA
mr_images/5_b.png	mr_images/5_b_z_135.png	left	cw	135	NA	NA	NA	NA	0	129	129	141	652.8273532001767	NA	NA	NA	NA	653.3940701000392	653.3940701000392	left	1	2.59056769986637	NA	NA	taa	001	2026-02-19_20h06.23.762	MR	2023.1.0	60.02516251611566	NA
mr_images/4_a.png	mr_images/4_a_z_225.png	left	ccw	135	NA	NA	NA	NA	0	130	130	107	656.010407499969	NA	NA	NA	NA	656.5434759000782	656.5434759000782	right	0	2.4330706000328064	NA	NA	taa	001	2026-02-19_20h06.23.762	MR	2023.1.0	60.02516251611566	NA
mr_images/5_a.png	mr_images/5_a_z_135.png	left	cw	135	NA	NA	NA	NA	0	131	131	129	658.993202800164	NA	NA	NA	NA	659.5315280000214	659.5315280000214	right	0	1.8557358998805285	NA	NA	taa	001	2026-02-19_20h06.23.762	MR	2023.1.0	60.02516251611566	NA
mr_images/12_a.png	mr_images/12_a_z_270.png	left	ccw	90	NA	NA	NA	NA	0	132	132	55	661.4135714001022	NA	NA	NA	NA	661.9433646001853	661.9433646001853	left	1	1.4741667998023331	NA	NA	taa	001	2026-02-19_20h06.23.762	MR	2023.1.0	60.02516251611566	NA
mr_images/1_a.png	mr_images/1_b_z_90.png	right	cw	90	NA	NA	NA	NA	0	133	133	4	663.4425286999904	NA	NA	NA	NA	664.0090336001012	664.0090336001012	right	1	2.1537445997819304	NA	NA	taa	001	2026-02-19_20h06.23.762	MR	2023.1.0	60.02516251611566	NA
mr_images/5_b.png	mr_images/5_b_z_315.png	left	ccw	45	NA	NA	NA	NA	0	134	134	135	666.1920962000731	NA	NA	NA	NA	666.7258657000493	666.7258657000493	left	1	3.166176499798894	NA	NA	taa	001	2026-02-19_20h06.23.762	MR	2023.1.0	60.02516251611566	NA
mr_images/6_b.png	mr_images/6_a_z_90.png	right	cw	90	NA	NA	NA	NA	0	135	135	160	669.9088648001198	NA	NA	NA	NA	670.441522100009	670.441522100009	right	1	3.7113896999508142	NA	NA	taa	001	2026-02-19_20h06.23.762	MR	2023.1.0	60.02516251611566	NA
mr_images/1_b.png	mr_images/1_b_z_45.png	left	cw	45	NA	NA	NA	NA	0	136	136	13	674.1744061000645	NA	NA	NA	NA	674.7116969001945	674.7116969001945	right	0	3.197551499819383	NA	NA	taa	001	2026-02-19_20h06.23.762	MR	2023.1.0	60.02516251611566	NA
mr_images/11_a.png	mr_images/11_a_z_270.png	left	ccw	90	NA	NA	NA	NA	0	137	137	31	677.9278913000599	NA	NA	NA	NA	678.4605539001059	678.4605539001059	right	0	1.0901964998338372	NA	NA	taa	001	2026-02-19_20h06.23.762	MR	2023.1.0	60.02516251611566	NA
mr_images/12_b.png	mr_images/12_b_z_90.png	left	cw	90	NA	NA	NA	NA	0	138	138	65	679.5781943001784	NA	NA	NA	NA	680.1091261999682	680.1091261999682	left	1	2.319279099814594	NA	NA	taa	001	2026-02-19_20h06.23.762	MR	2023.1.0	60.02516251611566	NA
mr_images/11_a.png	mr_images/11_a_z_315.png	left	ccw	45	NA	NA	NA	NA	0	139	139	27	682.4439036000986	NA	NA	NA	NA	682.9727722001262	682.9727722001262	right	0	1.0197902999352664	NA	NA	taa	001	2026-02-19_20h06.23.762	MR	2023.1.0	60.02516251611566	NA
mr_images/3_a.png	mr_images/3_b_z_45.png	right	cw	45	NA	NA	NA	NA	0	140	140	72	684.0231097000651	NA	NA	NA	NA	684.5914509000722	684.5914509000722	right	1	1.702272600028664	NA	NA	taa	001	2026-02-19_20h06.23.762	MR	2023.1.0	60.02516251611566	NA
mr_images/3_b.png	mr_images/3_b_z_270.png	left	ccw	90	NA	NA	NA	NA	0	141	141	91	686.3100476001855	NA	NA	NA	NA	686.8408944001421	686.8408944001421	right	0	1.482885199831799	NA	NA	taa	001	2026-02-19_20h06.23.762	MR	2023.1.0	60.02516251611566	NA
mr_images/1_a.png	mr_images/1_a_z_135.png	left	cw	135	NA	NA	NA	NA	0	142	142	9	688.3431182000786	NA	NA	NA	NA	688.9074605000205	688.9074605000205	right	0	1.5873556998558342	NA	NA	taa	001	2026-02-19_20h06.23.762	MR	2023.1.0	60.02516251611566	NA
mr_images/9_b.png	mr_images/9_a_z_225.png	right	ccw	135	NA	NA	NA	NA	0	143	143	214	690.5264511001296	NA	NA	NA	NA	691.0598177001812	691.0598177001812	right	1	1.6612411998212335	NA	NA	taa	001	2026-02-19_20h06.23.762	MR	2023.1.0	60.02516251611566	NA
mr_images/9_a.png	mr_images/9_b_z_270.png	right	ccw	90	NA	NA	NA	NA	0	144	144	198	692.7428789001424	NA	NA	NA	NA	693.3217658000067	693.3217658000067	right	1	0.9890133999288082	NA	NA	taa	001	2026-02-19_20h06.23.762	MR	2023.1.0	60.02516251611566	NA
mr_images/6_b.png	mr_images/6_a_z_270.png	right	ccw	90	NA	NA	NA	NA	0	145	145	162	694.3384184001479	NA	NA	NA	NA	694.8718259001616	694.8718259001616	right	1	1.0600864998996258	NA	NA	taa	001	2026-02-19_20h06.23.762	MR	2023.1.0	60.02516251611566	NA
mr_images/1_b.png	mr_images/1_a_z_135.png	right	cw	135	NA	NA	NA	NA	0	146	146	20	695.9551381999627	NA	NA	NA	NA	696.504527800018	696.504527800018	left	0	2.704666899750009	NA	NA	taa	001	2026-02-19_20h06.23.762	MR	2023.1.0	60.02516251611566	NA
mr_images/7_b.png	mr_images/7_a_z_45.png	right	cw	45	NA	NA	NA	NA	0	147	147	180	699.2376249001827	NA	NA	NA	NA	699.7707936000079	699.7707936000079	right	1	1.2245074999518692	NA	NA	taa	001	2026-02-19_20h06.23.762	MR	2023.1.0	60.02516251611566	NA
mr_images/7_b.png	mr_images/7_b_z_135.png	left	cw	135	NA	NA	NA	NA	0	148	148	189	701.0206133001484	NA	NA	NA	NA	701.5759794001933	701.5759794001933	right	0	0.700537099968642	NA	NA	taa	001	2026-02-19_20h06.23.762	MR	2023.1.0	60.02516251611566	NA
mr_images/3_a.png	mr_images/3_a_z_45.png	left	cw	45	NA	NA	NA	NA	0	149	149	73	702.3078265001532	NA	NA	NA	NA	702.8755106001627	702.8755106001627	right	0	0.84320499980822206	NA	NA	taa	001	2026-02-19_20h06.23.762	MR	2023.1.0	60.02516251611566	NA
mr_images/9_b.png	mr_images/9_b_z_270.png	left	ccw	90	NA	NA	NA	NA	0	150	150	211	703.7409430001862	NA	NA	NA	NA	704.2734457000624	704.2734457000624	right	0	0.8894642998930067	NA	NA	taa	001	2026-02-19_20h06.23.762	MR	2023.1.0	60.02516251611566	NA
mr_images/4_a.png	mr_images/4_a_z_270.png	left	ccw	90	NA	NA	NA	NA	0	151	151	103	705.1908019999973	NA	NA	NA	NA	705.7223088000901	705.7223088000901	right	0	1.1871353997848928	NA	NA	taa	001	2026-02-19_20h06.23.762	MR	2023.1.0	60.02516251611566	NA
mr_images/5_a.png	mr_images/5_a_z_45.png	left	cw	45	NA	NA	NA	NA	0	152	152	121	706.9404968000017	NA	NA	NA	NA	707.5031702001579	707.5031702001579	right	0	1.231552799930796	NA	NA	taa	001	2026-02-19_20h06.23.762	MR	2023.1.0	60.02516251611566	NA
mr_images/3_a.png	mr_images/3_a_z_135.png	left	cw	135	NA	NA	NA	NA	0	153	153	81	708.7534720001277	NA	NA	NA	NA	709.2861745001283	709.2861745001283	right	0	3.814607999753207	NA	NA	taa	001	2026-02-19_20h06.23.762	MR	2023.1.0	60.02516251611566	NA
mr_images/3_a.png	mr_images/3_a_z_315.png	left	ccw	45	NA	NA	NA	NA	0	154	154	75	713.11892909999	NA	NA	NA	NA	713.6855566999875	713.6855566999875	right	0	1.6711234997492284	NA	NA	taa	001	2026-02-19_20h06.23.762	MR	2023.1.0	60.02516251611566	NA
mr_images/11_b.png	mr_images/11_b_z_270.png	left	ccw	90	NA	NA	NA	NA	0	155	155	43	715.3853994000237	NA	NA	NA	NA	715.9190853000619	715.9190853000619	right	0	1.1988550000824034	NA	NA	taa	001	2026-02-19_20h06.23.762	MR	2023.1.0	60.02516251611566	NA
mr_images/3_a.png	mr_images/3_a_z_270.png	left	ccw	90	NA	NA	NA	NA	0	156	156	79	717.1356014001649	NA	NA	NA	NA	717.6683763000183	717.6683763000183	right	0	1.1705893997568635	NA	NA	taa	001	2026-02-19_20h06.23.762	MR	2023.1.0	60.02516251611566	NA
mr_images/4_a.png	mr_images/4_a_z_315.png	left	ccw	45	NA	NA	NA	NA	0	157	157	99	718.8681781999767	NA	NA	NA	NA	719.4348008001689	719.4348008001689	left	1	3.242917399853468	NA	NA	taa	001	2026-02-19_20h06.23.762	MR	2023.1.0	60.02516251611566	NA
mr_images/3_b.png	mr_images/3_a_z_45.png	right	cw	45	NA	NA	NA	NA	0	158	158	84	722.7014973000623	NA	NA	NA	NA	723.2343241001945	723.2343241001945	right	1	1.3889011999126524	NA	NA	taa	001	2026-02-19_20h06.23.762	MR	2023.1.0	60.02516251611566	NA
mr_images/1_a.png	mr_images/1_b_z_315.png	right	ccw	45	NA	NA	NA	NA	0	159	159	2	724.6506982999854	NA	NA	NA	NA	725.18438900006	725.18438900006	left	0	1.73545469972305	NA	NA	taa	001	2026-02-19_20h06.23.762	MR	2023.1.0	60.02516251611566	NA
mr_images/11_b.png	mr_images/11_b_z_225.png	left	ccw	135	NA	NA	NA	NA	0	160	160	47	726.950364400167	NA	NA	NA	NA	727.4835879001766	727.4835879001766	right	0	1.117204199777916	NA	NA	taa	001	2026-02-19_20h06.23.762	MR	2023.1.0	60.02516251611566	NA
mr_images/5_a.png	mr_images/5_a_z_270.png	left	ccw	90	NA	NA	NA	NA	0	161	161	127	728.6168810001109	NA	NA	NA	NA	NA	729.1532725000288	left	1	3.5576609999407083	NA	NA	taa	001	2026-02-19_20h06.23.762	MR	2023.1.0	60.02516251611566	NA
mr_images/6_a.png	mr_images/6_b_z_315.png	right	ccw	45	NA	NA	NA	NA	0	162	162	146	732.7328709000722	NA	NA	NA	NA	733.2666137001943	733.2666137001943	left	0	1.549283199943602	NA	NA	taa	001	2026-02-19_20h06.23.762	MR	2023.1.0	60.02516251611566	NA
mr_images/11_b.png	mr_images/11_a_z_45.png	right	cw	45	NA	NA	NA	NA	0	163	163	36	734.8326024000999	NA	NA	NA	NA	735.365750500001	735.365750500001	left	0	1.63445460004732	NA	NA	taa	001	2026-02-19_20h06.23.762	MR	2023.1.0	60.02516251611566	NA
mr_images/5_b.png	mr_images/5_a_z_45.png	right	cw	45	NA	NA	NA	NA	0	164	164	132	737.032756500179	NA	NA	NA	NA	737.5655684000812	737.5655684000812	left	0	3.198639899957925	NA	NA	taa	001	2026-02-19_20h06.23.762	MR	2023.1.0	60.02516251611566	NA
mr_images/3_a.png	mr_images/3_b_z_315.png	right	ccw	45	NA	NA	NA	NA	0	165	165	74	740.7826143000275	NA	NA	NA	NA	741.3150641999673	741.3150641999673	left	0	2.237941299797967	NA	NA	taa	001	2026-02-19_20h06.23.762	MR	2023.1.0	60.02516251611566	NA
mr_images/3_b.png	mr_images/3_a_z_315.png	right	ccw	45	NA	NA	NA	NA	0	166	166	86	743.5815092001576	NA	NA	NA	NA	744.1144125000574	744.1144125000574	left	0	2.06226749997586	NA	NA	taa	001	2026-02-19_20h06.23.762	MR	2023.1.0	60.02516251611566	NA
mr_images/4_b.png	mr_images/4_b_z_135.png	left	cw	135	NA	NA	NA	NA	0	167	167	117	746.1976640000939	NA	NA	NA	NA	746.7541233000811	746.7541233000811	right	0	2.817107300041243	NA	NA	taa	001	2026-02-19_20h06.23.762	MR	2023.1.0	60.02516251611566	NA
mr_images/12_b.png	mr_images/12_b_z_45.png	left	cw	45	NA	NA	NA	NA	0	168	168	61	749.601394199999	NA	NA	NA	NA	750.1314758001827	750.1314758001827	left	1	1.821923199808225	NA	NA	taa	001	2026-02-19_20h06.23.762	MR	2023.1.0	60.02516251611566	NA
mr_images/12_b.png	mr_images/12_a_z_315.png	right	ccw	45	NA	NA	NA	NA	0	169	169	62	751.9803208999801	NA	NA	NA	NA	752.5146859001834	752.5146859001834	left	0	2.1050167998764664	NA	NA	taa	001	2026-02-19_20h06.23.762	MR	2023.1.0	60.02516251611566	NA
mr_images/1_a.png	mr_images/1_a_z_270.png	left	ccw	90	NA	NA	NA	NA	0	170	170	7	754.6463898001239	NA	NA	NA	NA	755.1980546000414	755.1980546000414	right	0	1.7331866000313312	NA	NA	taa	001	2026-02-19_20h06.23.762	MR	2023.1.0	60.02516251611566	NA
mr_images/6_a.png	mr_images/6_b_z_270.png	right	ccw	90	NA	NA	NA	NA	0	171	171	150	756.9502689000219	NA	NA	NA	NA	757.4806941000279	757.4806941000279	left	0	0.893392900004983	NA	NA	taa	001	2026-02-19_20h06.23.762	MR	2023.1.0	60.02516251611566	NA
mr_images/4_b.png	mr_images/4_a_z_315.png	right	ccw	45	NA	NA	NA	NA	0	172	172	110	758.3958935001865	NA	NA	NA	NA	758.9294008000288	758.9294008000288	left	0	0.9784930997993796	NA	NA	taa	001	2026-02-19_20h06.23.762	MR	2023.1.0	60.02516251611566	NA
mr_images/9_b.png	mr_images/9_b_z_45.png	left	cw	45	NA	NA	NA	NA	0	173	173	205	759.9291774001904	NA	NA	NA	NA	760.4623983001802	760.4623983001802	right	0	1.6882590998429805	NA	NA	taa	001	2026-02-19_20h06.23.762	MR	2023.1.0	60.02516251611566	NA
mr_images/7_a.png	mr_images/7_b_z_225.png	right	ccw	135	NA	NA	NA	NA	0	174	174	178	762.1788431999739	NA	NA	NA	NA	762.7454519001767	762.7454519001767	right	1	1.067507399711758	NA	NA	taa	001	2026-02-19_20h06.23.762	MR	2023.1.0	60.02516251611566	NA
mr_images/4_a.png	mr_images/4_b_z_315.png	right	ccw	45	NA	NA	NA	NA	0	175	175	98	763.8287087001372	NA	NA	NA	NA	764.3621737000067	764.3621737000067	left	0	0.829473199788481	NA	NA	taa	001	2026-02-19_20h06.23.762	MR	2023.1.0	60.02516251611566	NA
mr_images/5_a.png	mr_images/5_a_z_225.png	left	ccw	135	NA	NA	NA	NA	0	176	176	131	765.2117433000822	NA	NA	NA	NA	765.7450559001882	765.7450559001882	right	0	1.0805507998447863	NA	NA	taa	001	2026-02-19_20h06.23.762	MR	2023.1.0	60.02516251611566	NA
mr_images/7_a.png	mr_images/7_b_z_135.png	right	cw	135	NA	NA	NA	NA	0	177	177	176	766.8447166001424	NA	NA	NA	NA	767.3845014001708	767.3845014001708	right	1	0.9495099999476224	NA	NA	taa	001	2026-02-19_20h06.23.762	MR	2023.1.0	60.02516251611566	NA
mr_images/1_a.png	mr_images/1_b_z_225.png	right	ccw	135	NA	NA	NA	NA	0	178	178	10	768.3653278001584	NA	NA	NA	NA	768.8947611001786	768.8947611001786	right	1	0.8764144000597298	NA	NA	taa	001	2026-02-19_20h06.23.762	MR	2023.1.0	60.02516251611566	NA
mr_images/3_a.png	mr_images/3_b_z_90.png	right	cw	90	NA	NA	NA	NA	0	179	179	76	769.7950645000674	NA	NA	NA	NA	770.3277549000923	770.3277549000923	right	1	1.0125316998455671	NA	NA	taa	001	2026-02-19_20h06.23.762	MR	2023.1.0	60.02516251611566	NA
mr_images/5_b.png	mr_images/5_b_z_225.png	left	ccw	135	NA	NA	NA	NA	0	180	180	143	771.3609567000531	NA	NA	NA	NA	771.8942119001877	771.8942119001877	right	0	1.029894799925387	NA	NA	taa	001	2026-02-19_20h06.23.762	MR	2023.1.0	60.02516251611566	NA
mr_images/3_b.png	mr_images/3_b_z_45.png	left	cw	45	NA	NA	NA	NA	0	181	181	85	772.9440330001526	NA	NA	NA	NA	773.4772445000708	773.4772445000708	right	0	1.481933299684897	NA	NA	taa	001	2026-02-19_20h06.23.762	MR	2023.1.0	60.02516251611566	NA
mr_images/7_a.png	mr_images/7_b_z_270.png	right	ccw	90	NA	NA	NA	NA	0	182	182	174	774.9769527001772	NA	NA	NA	NA	775.5139062001836	775.5139062001836	right	1	1.927869400009513	NA	NA	taa	001	2026-02-19_20h06.23.762	MR	2023.1.0	60.02516251611566	NA
mr_images/6_a.png	mr_images/6_a_z_225.png	left	ccw	135	NA	NA	NA	NA	0	183	183	155	777.4640571000054	NA	NA	NA	NA	778.009899900062	778.009899900062	right	0	1.2848624996840954	NA	NA	taa	001	2026-02-19_20h06.23.762	MR	2023.1.0	60.02516251611566	NA
mr_images/1_a.png	mr_images/1_a_z_90.png	left	cw	90	NA	NA	NA	NA	0	184	184	5	779.3264844999649	NA	NA	NA	NA	779.8632009001449	779.8632009001449	right	0	2.5441604000516236	NA	NA	taa	001	2026-02-19_20h06.23.762	MR	2023.1.0	60.02516251611566	NA
mr_images/3_a.png	mr_images/3_a_z_225.png	left	ccw	135	NA	NA	NA	NA	0	185	185	83	782.4300611000508	NA	NA	NA	NA	782.9645293999929	782.9645293999929	right	0	1.727438899921253	NA	NA	taa	001	2026-02-19_20h06.23.762	MR	2023.1.0	60.02516251611566	NA
mr_images/4_a.png	mr_images/4_b_z_45.png	right	cw	45	NA	NA	NA	NA	0	186	186	96	784.7135534000117	NA	NA	NA	NA	785.2446109000593	785.2446109000593	right	1	1.254659499740228	NA	NA	taa	001	2026-02-19_20h06.23.762	MR	2023.1.0	60.02516251611566	NA
mr_images/11_b.png	mr_images/11_b_z_45.png	left	cw	45	NA	NA	NA	NA	0	187	187	37	786.5295124000404	NA	NA	NA	NA	787.0610736000817	787.0610736000817	right	0	1.4140457997564226	NA	NA	taa	001	2026-02-19_20h06.23.762	MR	2023.1.0	60.02516251611566	NA
mr_images/1_b.png	mr_images/1_b_z_270.png	left	ccw	90	NA	NA	NA	NA	0	188	188	19	788.4959019001108	NA	NA	NA	NA	789.0256531999912	789.0256531999912	right	0	1.5521127998363229	NA	NA	taa	001	2026-02-19_20h06.23.762	MR	2023.1.0	60.02516251611566	NA
mr_images/4_a.png	mr_images/4_b_z_90.png	right	cw	90	NA	NA	NA	NA	0	189	189	100	790.6081923001911	NA	NA	NA	NA	791.1414654999971	791.1414654999971	right	1	1.339162599761039	NA	NA	taa	001	2026-02-19_20h06.23.762	MR	2023.1.0	60.02516251611566	NA
mr_images/12_b.png	mr_images/12_a_z_90.png	right	cw	90	NA	NA	NA	NA	0	190	190	64	792.5079010999762	NA	NA	NA	NA	793.0426692001056	793.0426692001056	left	0	1.7198650997597724	NA	NA	taa	001	2026-02-19_20h06.23.762	MR	2023.1.0	60.02516251611566	NA
mr_images/11_a.png	mr_images/11_a_z_225.png	left	ccw	135	NA	NA	NA	NA	0	191	191	35	794.7786157999653	NA	NA	NA	NA	795.3238119001035	795.3238119001035	right	0	0.8690625999588519	NA	NA	taa	001	2026-02-19_20h06.23.762	MR	2023.1.0	60.02516251611566	NA
mr_images/9_a.png	mr_images/9_a_z_135.png	left	cw	135	NA	NA	NA	NA	0	192	192	201	796.2243085000664	NA	NA	NA	NA	796.7962136999704	796.7962136999704	right	0	1.2243850000668317	NA	NA	taa	001	2026-02-19_20h06.23.762	MR	2023.1.0	60.02516251611566	NA
mr_images/12_a.png	mr_images/12_b_z_225.png	right	ccw	135	NA	NA	NA	NA	0	193	193	58	798.0450583000202	NA	NA	NA	NA	798.5750782999676	798.5750782999676	left	0	1.7341905999928713	NA	NA	taa	001	2026-02-19_20h06.23.762	MR	2023.1.0	60.02516251611566	NA
mr_images/6_a.png	mr_images/6_b_z_225.png	right	ccw	135	NA	NA	NA	NA	0	194	194	154	800.3569283999968	NA	NA	NA	NA	NA	800.9242240001913	right	1	1.4675141999032348	NA	NA	taa	001	2026-02-19_20h06.23.762	MR	2023.1.0	60.02516251611566	NA
mr_images/7_a.png	mr_images/7_a_z_315.png	left	ccw	45	NA	NA	NA	NA	0	195	195	171	802.4232363000046	NA	NA	NA	NA	802.9568457000423	802.9568457000423	left	1	1.0232611997053027	NA	NA	taa	001	2026-02-19_20h06.23.762	MR	2023.1.0	60.02516251611566	NA
mr_images/9_a.png	mr_images/9_a_z_270.png	left	ccw	90	NA	NA	NA	NA	0	196	196	199	804.0064000000712	NA	NA	NA	NA	804.5400289001409	804.5400289001409	left	1	1.4340482999105006	NA	NA	taa	001	2026-02-19_20h06.23.762	MR	2023.1.0	60.02516251611566	NA
mr_images/7_b.png	mr_images/7_a_z_225.png	right	ccw	135	NA	NA	NA	NA	0	197	197	190	806.0061104001943	NA	NA	NA	NA	806.5397608000785	806.5397608000785	left	0	2.5254737997893244	NA	NA	taa	001	2026-02-19_20h06.23.762	MR	2023.1.0	60.02516251611566	NA
mr_images/12_b.png	mr_images/12_a_z_45.png	right	cw	45	NA	NA	NA	NA	0	198	198	60	809.0889373000246	NA	NA	NA	NA	809.6223281000275	809.6223281000275	left	0	1.810908299870789	NA	NA	taa	001	2026-02-19_20h06.23.762	MR	2023.1.0	60.02516251611566	NA
mr_images/11_b.png	mr_images/11_a_z_225.png	right	ccw	135	NA	NA	NA	NA	0	199	199	46	811.4557992999908	NA	NA	NA	NA	811.9888967999723	811.9888967999723	left	0	2.285543299978599	NA	NA	taa	001	2026-02-19_20h06.23.762	MR	2023.1.0	60.02516251611566	NA
mr_images/1_b.png	mr_images/1_a_z_270.png	right	ccw	90	NA	NA	NA	NA	0	200	200	18	814.3049890000839	NA	NA	NA	NA	814.8387035999913	814.8387035999913	right	1	1.3094062998425215	NA	NA	taa	001	2026-02-19_20h06.23.762	MR	2023.1.0	60.02516251611566	NA
mr_images/9_a.png	mr_images/9_b_z_90.png	right	cw	90	NA	NA	NA	NA	0	201	201	196	816.1712183000054	NA	NA	NA	NA	816.7045668000355	816.7045668000355	left	0	2.3570939998608083	NA	NA	taa	001	2026-02-19_20h06.23.762	MR	2023.1.0	60.02516251611566	NA
mr_images/1_b.png	mr_images/1_a_z_45.png	right	cw	45	NA	NA	NA	NA	0	202	202	12	819.0876677001361	NA	NA	NA	NA	819.6209613999818	819.6209613999818	right	1	1.652205899823457	NA	NA	taa	001	2026-02-19_20h06.23.762	MR	2023.1.0	60.02516251611566	NA
mr_images/6_b.png	mr_images/6_b_z_135.png	left	cw	135	NA	NA	NA	NA	0	203	203	165	821.3039153001737	NA	NA	NA	NA	821.8370255001355	821.8370255001355	right	0	2.4158110998105258	NA	NA	taa	001	2026-02-19_20h06.23.762	MR	2023.1.0	60.02516251611566	NA
mr_images/9_b.png	mr_images/9_a_z_135.png	right	cw	135	NA	NA	NA	NA	0	204	204	212	824.2702105999924	NA	NA	NA	NA	824.8034487001132	824.8034487001132	left	0	2.009794499957934	NA	NA	taa	001	2026-02-19_20h06.23.762	MR	2023.1.0	60.02516251611566	NA
mr_images/6_b.png	mr_images/6_b_z_90.png	left	cw	90	NA	NA	NA	NA	0	205	205	161	826.8365011999849	NA	NA	NA	NA	827.3697689000983	827.3697689000983	right	0	1.8231522999703884	NA	NA	taa	001	2026-02-19_20h06.23.762	MR	2023.1.0	60.02516251611566	NA
mr_images/7_b.png	mr_images/7_b_z_90.png	left	cw	90	NA	NA	NA	NA	0	206	206	185	829.2198591001797	NA	NA	NA	NA	829.7527594000567	829.7527594000567	right	0	2.9461297998204827	NA	NA	taa	001	2026-02-19_20h06.23.762	MR	2023.1.0	60.02516251611566	NA
mr_images/6_b.png	mr_images/6_b_z_225.png	left	ccw	135	NA	NA	NA	NA	0	207	207	167	832.7190909001511	NA	NA	NA	NA	833.2530575001147	833.2530575001147	left	1	2.4467094999272376	NA	NA	taa	001	2026-02-19_20h06.23.762	MR	2023.1.0	60.02516251611566	NA
mr_images/1_a.png	mr_images/1_a_z_225.png	left	ccw	135	NA	NA	NA	NA	0	208	208	11	835.718690500129	NA	NA	NA	NA	836.2519432001282	836.2519432001282	right	0	1.9746934999711812	NA	NA	taa	001	2026-02-19_20h06.23.762	MR	2023.1.0	60.02516251611566	NA
mr_images/4_b.png	mr_images/4_b_z_225.png	left	ccw	135	NA	NA	NA	NA	0	209	209	119	838.2516336999834	NA	NA	NA	NA	838.7846274999902	838.7846274999902	left	1	4.081451099831611	NA	NA	taa	001	2026-02-19_20h06.23.762	MR	2023.1.0	60.02516251611566	NA
mr_images/7_a.png	mr_images/7_b_z_315.png	right	ccw	45	NA	NA	NA	NA	0	210	210	170	842.8841048001777	NA	NA	NA	NA	843.4348200000823	843.4348200000823	left	0	3.3497343997005373	NA	NA	taa	001	2026-02-19_20h06.23.762	MR	2023.1.0	60.02516251611566	NA
mr_images/1_b.png	mr_images/1_b_z_90.png	left	cw	90	NA	NA	NA	NA	0	211	211	17	846.817115199985	NA	NA	NA	NA	847.3503912000451	847.3503912000451	right	0	3.2258051997050643	NA	NA	taa	001	2026-02-19_20h06.23.762	MR	2023.1.0	60.02516251611566	NA
mr_images/7_b.png	mr_images/7_b_z_225.png	left	ccw	135	NA	NA	NA	NA	0	212	212	191	850.6004804000258	NA	NA	NA	NA	851.1365322000347	851.1365322000347	right	0	3.442625899799168	NA	NA	taa	001	2026-02-19_20h06.23.762	MR	2023.1.0	60.02516251611566	NA
mr_images/4_a.png	mr_images/4_b_z_135.png	right	cw	135	NA	NA	NA	NA	0	213	213	104	854.6035317000933	NA	NA	NA	NA	855.1376237999648	855.1376237999648	left	0	2.7241148001048714	NA	NA	taa	001	2026-02-19_20h06.23.762	MR	2023.1.0	60.02516251611566	NA
mr_images/5_a.png	mr_images/5_b_z_135.png	right	cw	135	NA	NA	NA	NA	0	214	214	128	857.8862077000085	NA	NA	NA	NA	858.4322507001925	858.4322507001925	left	0	3.9712712997570634	NA	NA	taa	001	2026-02-19_20h06.23.762	MR	2023.1.0	60.02516251611566	NA
mr_images/5_b.png	mr_images/5_a_z_315.png	right	ccw	45	NA	NA	NA	NA	0	215	215	134	862.4315758000594	NA	NA	NA	NA	862.9645858001895	862.9645858001895	left	0	2.7391546999569982	NA	NA	taa	001	2026-02-19_20h06.23.762	MR	2023.1.0	60.02516251611566	NA
NA	NA	NA	NA	NA	NA	NA	NA	NA	NA	NA	NA	NA	NA	NA	NA	NA	NA	NA	NA	NA	NA	NA	865.731302900007	867.7309246000368	NA	NA	NA	NA	NA	NA	NA
