sequence	training_session.thisRepN	training_session.thisTrialN	training_session.thisN	training_session.thisIndex	training_2n.thisRepN	training_2n.thisTrialN	training_2n.thisN	training_2n.thisIndex	training_3n.thisRepN	training_3n.thisTrialN	training_3n.thisN	training_3n.thisIndex	training_4n.thisRepN	training_4n.thisTrialN	training_4n.thisN	training_4n.thisIndex	allrep_2nback.thisRepN	allrep_2nback.thisTrialN	allrep_2nback.thisN	allrep_2nback.thisIndex	trials_2nback.thisRepN	trials_2nback.thisTrialN	trials_2nback.thisN	trials_2nback.thisIndex	allrep_3nback.thisRepN	allrep_3nback.thisTrialN	allrep_3nback.thisN	allrep_3nback.thisIndex	trials_3nback.thisRepN	trials_3nback.thisTrialN	trials_3nback.thisN	trials_3nback.thisIndex	allrep_4nback.thisRepN	allrep_4nback.thisTrialN	allrep_4nback.thisN	allrep_4nback.thisIndex	trials_4nback.thisRepN	trials_4nback.thisTrialN	trials_4nback.thisN	trials_4nback.thisIndex	buffer02_txt.started	test_griddot_resp2.started	test_griddot_resp2.keys	test_griddot_resp2.rt	buffer23_txt.started	test_griddot_resp3.started	test_griddot_resp3.keys	test_griddot_resp3.rt	buffer34_txt.started	test_griddot_resp4.started	test_griddot_resp4.keys	test_griddot_resp4.rt	confirm_resp.started	confirm_resp.keys	confirm_resp.rt	buffer02_txt.stopped	instr_text_2.started	griddot_resp2.started	griddot_resp2.keys	griddot_resp2.rt	buffer23_txt.stopped	griddot_resp3.started	griddot_resp3.keys	griddot_resp3.rt	buffer34_txt.stopped	griddot_resp4.started	griddot_resp4.keys	griddot_resp4.rt	participant	session	date	expName	psychopyVersion	frameRate	...76
[(0, 2), (1, 2), (1, 2), (1, 2), (2, 0), (1, 2), (2, 1), (0, 1)]	0	0	0	0	0	0	0	88	NA	NA	NA	NA	NA	NA	NA	NA	NA	NA	NA	NA	NA	NA	NA	NA	NA	NA	NA	NA	NA	NA	NA	NA	NA	NA	NA	NA	NA	NA	NA	NA	338.86710479995236	342.94929890008643	None	NA	NA	NA	NA	NA	NA	NA	NA	NA	NA	NA	NA	NA	NA	NA	NA	NA	NA	NA	NA	NA	NA	NA	NA	NA	taa	001	2026-02-19_19h00.01.171	SS	2023.1.0	59.96185230019298	NA
[(0, 0), (0, 2), (2, 1), (2, 0), (0, 0), (2, 0), (0, 0), (0, 2)]	0	0	0	0	0	1	1	82	NA	NA	NA	NA	NA	NA	NA	NA	NA	NA	NA	NA	NA	NA	NA	NA	NA	NA	NA	NA	NA	NA	NA	NA	NA	NA	NA	NA	NA	NA	NA	NA	NA	359.93046659999527	['left', 'left', 'left']	[5.209768399829045, 8.743622199865058, 11.125366799766198]	NA	NA	NA	NA	NA	NA	NA	NA	NA	NA	NA	NA	NA	NA	NA	NA	NA	NA	NA	NA	NA	NA	NA	NA	taa	001	2026-02-19_19h00.01.171	SS	2023.1.0	59.96185230019298	NA
[(1, 1), (2, 1), (2, 1), (0, 2), (2, 1), (1, 0), (2, 1), (0, 2)]	0	0	0	0	0	2	2	338	NA	NA	NA	NA	NA	NA	NA	NA	NA	NA	NA	NA	NA	NA	NA	NA	NA	NA	NA	NA	NA	NA	NA	NA	NA	NA	NA	NA	NA	NA	NA	NA	NA	376.9812566000037	['left', 'left']	[5.822394099785015, 9.355797299882397]	NA	NA	NA	NA	NA	NA	NA	NA	NA	NA	NA	NA	NA	NA	NA	NA	NA	NA	NA	NA	NA	NA	NA	NA	taa	001	2026-02-19_19h00.01.171	SS	2023.1.0	59.96185230019298	NA
[(2, 2), (1, 1), (2, 1), (2, 0), (1, 1), (2, 1), (0, 0), (1, 2), (2, 0)]	0	0	0	0	NA	NA	NA	NA	0	0	0	587	NA	NA	NA	NA	NA	NA	NA	NA	NA	NA	NA	NA	NA	NA	NA	NA	NA	NA	NA	NA	NA	NA	NA	NA	NA	NA	NA	NA	NA	NA	NA	NA	393.85952650010586	397.9425953000318	['left']	[7.56391239981167]	NA	NA	NA	NA	NA	NA	NA	NA	NA	NA	NA	NA	NA	NA	NA	NA	NA	NA	NA	NA	taa	001	2026-02-19_19h00.01.171	SS	2023.1.0	59.96185230019298	NA
[(2, 2), (0, 1), (1, 0), (2, 2), (0, 1), (1, 2), (1, 1), (1, 2), (2, 1)]	0	0	0	0	NA	NA	NA	NA	0	1	1	48	NA	NA	NA	NA	NA	NA	NA	NA	NA	NA	NA	NA	NA	NA	NA	NA	NA	NA	NA	NA	NA	NA	NA	NA	NA	NA	NA	NA	NA	NA	NA	NA	NA	416.9234264001716	None	NA	NA	NA	NA	NA	NA	NA	NA	NA	NA	NA	NA	NA	NA	NA	NA	NA	NA	NA	NA	NA	taa	001	2026-02-19_19h00.01.171	SS	2023.1.0	59.96185230019298	NA
[(2, 0), (0, 1), (1, 0), (0, 2), (1, 2), (2, 1), (2, 2), (1, 2), (2, 1)]	0	0	0	0	NA	NA	NA	NA	0	2	2	538	NA	NA	NA	NA	NA	NA	NA	NA	NA	NA	NA	NA	NA	NA	NA	NA	NA	NA	NA	NA	NA	NA	NA	NA	NA	NA	NA	NA	NA	NA	NA	NA	NA	435.9370236999821	None	NA	NA	NA	NA	NA	NA	NA	NA	NA	NA	NA	NA	NA	NA	NA	NA	NA	NA	NA	NA	NA	taa	001	2026-02-19_19h00.01.171	SS	2023.1.0	59.96185230019298	NA
[(1, 1), (0, 2), (0, 1), (2, 0), (2, 2), (0, 2), (0, 0), (0, 2), (2, 2), (0, 1)]	0	0	0	0	NA	NA	NA	NA	NA	NA	NA	NA	0	0	0	1	NA	NA	NA	NA	NA	NA	NA	NA	NA	NA	NA	NA	NA	NA	NA	NA	NA	NA	NA	NA	NA	NA	NA	NA	NA	NA	NA	NA	NA	NA	NA	NA	454.85498040006496	458.93729780009016	None	NA	NA	NA	NA	NA	NA	NA	NA	NA	NA	NA	NA	NA	NA	NA	NA	NA	taa	001	2026-02-19_19h00.01.171	SS	2023.1.0	59.96185230019298	NA
[(0, 1), (0, 2), (0, 2), (1, 2), (0, 1), (0, 0), (0, 2), (2, 2), (0, 2), (2, 1)]	0	0	0	0	NA	NA	NA	NA	NA	NA	NA	NA	0	1	1	566	NA	NA	NA	NA	NA	NA	NA	NA	NA	NA	NA	NA	NA	NA	NA	NA	NA	NA	NA	NA	NA	NA	NA	NA	NA	NA	NA	NA	NA	NA	NA	NA	NA	479.9013817000669	['left', 'left']	[7.157745299860835, 9.104147099889815]	NA	NA	NA	NA	NA	NA	NA	NA	NA	NA	NA	NA	NA	NA	NA	NA	taa	001	2026-02-19_19h00.01.171	SS	2023.1.0	59.96185230019298	NA
[(1, 1), (1, 0), (2, 1), (1, 2), (1, 1), (2, 1), (1, 2), (1, 2), (0, 0), (1, 1)]	0	0	0	0	NA	NA	NA	NA	NA	NA	NA	NA	0	2	2	552	NA	NA	NA	NA	NA	NA	NA	NA	NA	NA	NA	NA	NA	NA	NA	NA	NA	NA	NA	NA	NA	NA	NA	NA	NA	NA	NA	NA	NA	NA	NA	NA	NA	500.928366499953	None	NA	NA	NA	NA	NA	NA	NA	NA	NA	NA	NA	NA	NA	NA	NA	NA	NA	taa	001	2026-02-19_19h00.01.171	SS	2023.1.0	59.96185230019298	NA
NA	0	0	0	0	NA	NA	NA	NA	NA	NA	NA	NA	NA	NA	NA	NA	NA	NA	NA	NA	NA	NA	NA	NA	NA	NA	NA	NA	NA	NA	NA	NA	NA	NA	NA	NA	NA	NA	NA	NA	NA	NA	NA	NA	NA	NA	NA	NA	NA	NA	NA	NA	520.8585757000837	n	3.822797899832949	NA	NA	NA	NA	NA	NA	NA	NA	NA	NA	NA	NA	NA	taa	001	2026-02-19_19h00.01.171	SS	2023.1.0	59.96185230019298	NA
[(1, 1), (0, 2), (2, 0), (0, 1), (2, 0), (0, 0), (2, 0), (1, 2)]	1	0	1	0	0	0	0	178	NA	NA	NA	NA	NA	NA	NA	NA	NA	NA	NA	NA	NA	NA	NA	NA	NA	NA	NA	NA	NA	NA	NA	NA	NA	NA	NA	NA	NA	NA	NA	NA	525.7078583000693	529.7910551000386	['left', 'left', 'right', 'left', 'right', 'left']	[4.587730399798602, 6.7234224998392165, 9.405272799776867, 11.29763609985821, 13.307877799961716, 15.375824399990961]	NA	NA	NA	NA	NA	NA	NA	NA	NA	NA	NA	528.8072701999918	NA	NA	NA	NA	NA	NA	NA	NA	NA	NA	NA	NA	taa	001	2026-02-19_19h00.01.171	SS	2023.1.0	59.96185230019298	NA
[(1, 1), (2, 1), (0, 1), (2, 1), (1, 2), (2, 0), (1, 2), (2, 2)]	1	0	1	0	0	1	1	65	NA	NA	NA	NA	NA	NA	NA	NA	NA	NA	NA	NA	NA	NA	NA	NA	NA	NA	NA	NA	NA	NA	NA	NA	NA	NA	NA	NA	NA	NA	NA	NA	NA	546.7879874000791	['left', 'right', 'left', 'left', 'right', 'left']	[5.272341599920765, 6.831786299822852, 8.853777999756858, 10.84167669992894, 12.576635199831799, 15.049190399935469]	NA	NA	NA	NA	NA	NA	NA	NA	NA	NA	NA	NA	NA	NA	NA	NA	NA	NA	NA	NA	NA	NA	NA	NA	taa	001	2026-02-19_19h00.01.171	SS	2023.1.0	59.96185230019298	NA
[(2, 1), (2, 2), (2, 0), (1, 2), (0, 1), (1, 2), (1, 2), (1, 2)]	1	0	1	0	0	2	2	205	NA	NA	NA	NA	NA	NA	NA	NA	NA	NA	NA	NA	NA	NA	NA	NA	NA	NA	NA	NA	NA	NA	NA	NA	NA	NA	NA	NA	NA	NA	NA	NA	NA	563.7857468000147	['left', 'left', 'left', 'right', 'left', 'right']	[4.588338499888778, 7.042913399869576, 8.846158099826425, 10.5663069000002, 13.251002199947834, 15.310613099951297]	NA	NA	NA	NA	NA	NA	NA	NA	NA	NA	NA	NA	NA	NA	NA	NA	NA	NA	NA	NA	NA	NA	NA	NA	taa	001	2026-02-19_19h00.01.171	SS	2023.1.0	59.96185230019298	NA
[(1, 1), (0, 2), (2, 1), (1, 1), (2, 2), (2, 1), (1, 2), (2, 0), (0, 2)]	1	0	1	0	NA	NA	NA	NA	0	0	0	672	NA	NA	NA	NA	NA	NA	NA	NA	NA	NA	NA	NA	NA	NA	NA	NA	NA	NA	NA	NA	NA	NA	NA	NA	NA	NA	NA	NA	NA	NA	NA	NA	580.7168929001782	584.7997992001474	['right', 'left', 'right', 'left', 'left', 'left']	[7.0026885997504, 8.632447199895978, 11.175069999881089, 13.729889499722049, 15.293396799825132, 17.46066609979607]	NA	NA	NA	NA	NA	NA	NA	NA	NA	NA	NA	NA	NA	NA	NA	NA	NA	NA	NA	NA	taa	001	2026-02-19_19h00.01.171	SS	2023.1.0	59.96185230019298	NA
[(0, 0), (1, 0), (1, 0), (0, 0), (1, 0), (2, 2), (2, 0), (2, 0), (2, 0)]	1	0	1	0	NA	NA	NA	NA	0	1	1	661	NA	NA	NA	NA	NA	NA	NA	NA	NA	NA	NA	NA	NA	NA	NA	NA	NA	NA	NA	NA	NA	NA	NA	NA	NA	NA	NA	NA	NA	NA	NA	NA	NA	603.7833410999738	['right', 'right', 'left', 'left', 'left', 'right']	[6.721743399975821, 9.070518199820071, 10.681977899977937, 12.994729300029576, 15.486546800006181, 17.060803100001067]	NA	NA	NA	NA	NA	NA	NA	NA	NA	NA	NA	NA	NA	NA	NA	NA	NA	NA	NA	NA	taa	001	2026-02-19_19h00.01.171	SS	2023.1.0	59.96185230019298	NA
[(0, 2), (1, 2), (2, 0), (0, 2), (2, 0), (2, 0), (2, 2), (0, 0), (1, 1)]	1	0	1	0	NA	NA	NA	NA	0	2	2	280	NA	NA	NA	NA	NA	NA	NA	NA	NA	NA	NA	NA	NA	NA	NA	NA	NA	NA	NA	NA	NA	NA	NA	NA	NA	NA	NA	NA	NA	NA	NA	NA	NA	622.7781242001802	['right', 'right', 'left', 'left', 'left', 'left']	[6.930836099898443, 9.405487899901345, 11.028534600045532, 12.79182989988476, 14.952370200073346, 16.862971700029448]	NA	NA	NA	NA	NA	NA	NA	NA	NA	NA	NA	NA	NA	NA	NA	NA	NA	NA	NA	NA	taa	001	2026-02-19_19h00.01.171	SS	2023.1.0	59.96185230019298	NA
[(0, 0), (0, 0), (0, 0), (1, 0), (0, 0), (2, 1), (0, 2), (1, 2), (0, 2), (2, 1)]	1	0	1	0	NA	NA	NA	NA	NA	NA	NA	NA	0	0	0	57	NA	NA	NA	NA	NA	NA	NA	NA	NA	NA	NA	NA	NA	NA	NA	NA	NA	NA	NA	NA	NA	NA	NA	NA	NA	NA	NA	NA	NA	NA	NA	NA	641.7251240999904	645.7915972000919	['right', 'left', 'left', 'left', 'left', 'left']	[8.615314000053331, 11.165454200003296, 12.88511519995518, 14.87145800003782, 17.418842500075698, 19.458246499998495]	NA	NA	NA	NA	NA	NA	NA	NA	NA	NA	NA	NA	NA	NA	NA	NA	taa	001	2026-02-19_19h00.01.171	SS	2023.1.0	59.96185230019298	NA
[(0, 1), (0, 0), (0, 0), (0, 0), (2, 2), (1, 0), (2, 0), (0, 0), (2, 2), (1, 0)]	1	0	1	0	NA	NA	NA	NA	NA	NA	NA	NA	0	1	1	44	NA	NA	NA	NA	NA	NA	NA	NA	NA	NA	NA	NA	NA	NA	NA	NA	NA	NA	NA	NA	NA	NA	NA	NA	NA	NA	NA	NA	NA	NA	NA	NA	NA	666.7879141999874	['left', 'left', 'left', 'left', 'left']	[8.875840299762785, 11.357439799932763, 13.074346099980175, 16.764396299840882, 19.26746409991756]	NA	NA	NA	NA	NA	NA	NA	NA	NA	NA	NA	NA	NA	NA	NA	NA	taa	001	2026-02-19_19h00.01.171	SS	2023.1.0	59.96185230019298	NA
[(2, 2), (0, 2), (1, 0), (2, 2), (1, 2), (0, 2), (0, 1), (1, 1), (1, 2), (1, 2)]	1	0	1	0	NA	NA	NA	NA	NA	NA	NA	NA	0	2	2	162	NA	NA	NA	NA	NA	NA	NA	NA	NA	NA	NA	NA	NA	NA	NA	NA	NA	NA	NA	NA	NA	NA	NA	NA	NA	NA	NA	NA	NA	NA	NA	NA	NA	687.7850399999879	['right', 'right', 'left', 'left']	[9.278305299812928, 11.248964199796319, 12.65519869979471, 15.159256899729371]	NA	NA	NA	NA	NA	NA	NA	NA	NA	NA	NA	NA	NA	NA	NA	NA	taa	001	2026-02-19_19h00.01.171	SS	2023.1.0	59.96185230019298	NA
NA	1	0	1	0	NA	NA	NA	NA	NA	NA	NA	NA	NA	NA	NA	NA	NA	NA	NA	NA	NA	NA	NA	NA	NA	NA	NA	NA	NA	NA	NA	NA	NA	NA	NA	NA	NA	NA	NA	NA	NA	NA	NA	NA	NA	NA	NA	NA	NA	NA	NA	NA	707.7160653001629	y	29.24550010007806	NA	NA	NA	NA	NA	NA	NA	NA	NA	NA	NA	NA	NA	taa	001	2026-02-19_19h00.01.171	SS	2023.1.0	59.96185230019298	NA
[(2, 2), (1, 1), (2, 2), (1, 0), (2, 2), (2, 2), (1, 2), (2, 0)]	NA	NA	NA	NA	NA	NA	NA	NA	NA	NA	NA	NA	NA	NA	NA	NA	0	0	0	0	0	0	0	290	NA	NA	NA	NA	NA	NA	NA	NA	NA	NA	NA	NA	NA	NA	NA	NA	760.6460941999685	NA	NA	NA	NA	NA	NA	NA	NA	NA	NA	NA	NA	NA	NA	763.7079592000227	736.978486899985	764.7077295000199	['right', 'left', 'right', 'left', 'left', 'left']	[4.819701099768281, 7.102767899865285, 9.299092599889264, 11.539170599775389, 13.751828199718148, 15.427503399783745]	NA	NA	NA	NA	NA	NA	NA	NA	taa	001	2026-02-19_19h00.01.171	SS	2023.1.0	59.96185230019298	NA
[(0, 2), (2, 2), (1, 1), (1, 1), (1, 1), (1, 2), (1, 1), (0, 0)]	NA	NA	NA	NA	NA	NA	NA	NA	NA	NA	NA	NA	NA	NA	NA	NA	0	0	0	0	0	1	1	174	NA	NA	NA	NA	NA	NA	NA	NA	NA	NA	NA	NA	NA	NA	NA	NA	NA	NA	NA	NA	NA	NA	NA	NA	NA	NA	NA	NA	NA	NA	NA	NA	NA	781.7390740001574	['left', 'left', 'right', 'left', 'right', 'left']	[5.009164999704808, 6.823735399870202, 8.852972999680787, 11.049639499746263, 13.120843299897388, 14.984156799735501]	NA	NA	NA	NA	NA	NA	NA	NA	taa	001	2026-02-19_19h00.01.171	SS	2023.1.0	59.96185230019298	NA
[(0, 1), (2, 1), (0, 1), (2, 1), (1, 1), (2, 0), (0, 1), (2, 0)]	NA	NA	NA	NA	NA	NA	NA	NA	NA	NA	NA	NA	NA	NA	NA	NA	0	0	0	0	0	2	2	572	NA	NA	NA	NA	NA	NA	NA	NA	NA	NA	NA	NA	NA	NA	NA	NA	NA	NA	NA	NA	NA	NA	NA	NA	NA	NA	NA	NA	NA	NA	NA	NA	NA	798.7363901999779	['right', 'right', 'left', 'left', 'left', 'right']	[5.393019199836999, 7.065155299846083, 8.813695299904794, 10.730452799936756, 12.886739499866962, 14.957666699774563]	NA	NA	NA	NA	NA	NA	NA	NA	taa	001	2026-02-19_19h00.01.171	SS	2023.1.0	59.96185230019298	NA
[(2, 1), (0, 2), (2, 1), (0, 2), (1, 2), (2, 0), (0, 0), (0, 0)]	NA	NA	NA	NA	NA	NA	NA	NA	NA	NA	NA	NA	NA	NA	NA	NA	0	0	0	0	0	3	3	164	NA	NA	NA	NA	NA	NA	NA	NA	NA	NA	NA	NA	NA	NA	NA	NA	NA	NA	NA	NA	NA	NA	NA	NA	NA	NA	NA	NA	NA	NA	NA	NA	NA	815.7176964001264	['right', 'right', 'left', 'left', 'left', 'left']	[5.117171299876645, 7.235491999890655, 8.749197100056335, 11.33165799989365, 13.059515799861401, 15.20596529985778]	NA	NA	NA	NA	NA	NA	NA	NA	taa	001	2026-02-19_19h00.01.171	SS	2023.1.0	59.96185230019298	NA
[(1, 1), (2, 1), (2, 2), (2, 1), (2, 0), (0, 2), (2, 0), (2, 1)]	NA	NA	NA	NA	NA	NA	NA	NA	NA	NA	NA	NA	NA	NA	NA	NA	0	0	0	0	0	4	4	195	NA	NA	NA	NA	NA	NA	NA	NA	NA	NA	NA	NA	NA	NA	NA	NA	NA	NA	NA	NA	NA	NA	NA	NA	NA	NA	NA	NA	NA	NA	NA	NA	NA	832.7324068001471	['left', 'right', 'left', 'left', 'right', 'left']	[5.0191365997307, 7.129502199823037, 8.898090599803254, 11.026872999733314, 12.789089199854061, 15.159767499892041]	NA	NA	NA	NA	NA	NA	NA	NA	taa	001	2026-02-19_19h00.01.171	SS	2023.1.0	59.96185230019298	NA
[(1, 2), (0, 1), (1, 1), (1, 1), (1, 1), (1, 2), (1, 0), (1, 2)]	NA	NA	NA	NA	NA	NA	NA	NA	NA	NA	NA	NA	NA	NA	NA	NA	0	0	0	0	0	5	5	39	NA	NA	NA	NA	NA	NA	NA	NA	NA	NA	NA	NA	NA	NA	NA	NA	NA	NA	NA	NA	NA	NA	NA	NA	NA	NA	NA	NA	NA	NA	NA	NA	NA	849.7463477000128	['left', 'left', 'right', 'left', 'left', 'right']	[5.194711199961603, 7.451197399990633, 8.722498700022697, 10.835606599925086, 13.160082299960777, 14.733145299833268]	NA	NA	NA	NA	NA	NA	NA	NA	taa	001	2026-02-19_19h00.01.171	SS	2023.1.0	59.96185230019298	NA
NA	NA	NA	NA	NA	NA	NA	NA	NA	NA	NA	NA	NA	NA	NA	NA	NA	0	0	0	0	NA	NA	NA	NA	NA	NA	NA	NA	NA	NA	NA	NA	NA	NA	NA	NA	NA	NA	NA	NA	NA	NA	NA	NA	NA	NA	NA	NA	NA	NA	NA	NA	NA	NA	NA	NA	NA	NA	NA	NA	NA	NA	NA	NA	NA	NA	NA	NA	taa	001	2026-02-19_19h00.01.171	SS	2023.1.0	59.96185230019298	NA
[(0, 0), (0, 1), (2, 0), (0, 1), (1, 0), (2, 0), (1, 0), (0, 1)]	NA	NA	NA	NA	NA	NA	NA	NA	NA	NA	NA	NA	NA	NA	NA	NA	1	0	1	0	0	0	0	303	NA	NA	NA	NA	NA	NA	NA	NA	NA	NA	NA	NA	NA	NA	NA	NA	NA	NA	NA	NA	NA	NA	NA	NA	NA	NA	NA	NA	NA	NA	NA	NA	NA	868.9603091999888	['left', 'left', 'left', 'left', 'left', 'left']	[6.1136842998676, 6.621662599733099, 8.744699099799618, 11.52141029969789, 13.336856399895623, 15.276925499783829]	NA	NA	NA	NA	NA	NA	NA	NA	taa	001	2026-02-19_19h00.01.171	SS	2023.1.0	59.96185230019298	NA
[(2, 2), (2, 2), (1, 1), (2, 2), (1, 0), (2, 1), (1, 0), (0, 1)]	NA	NA	NA	NA	NA	NA	NA	NA	NA	NA	NA	NA	NA	NA	NA	NA	1	0	1	0	0	1	1	72	NA	NA	NA	NA	NA	NA	NA	NA	NA	NA	NA	NA	NA	NA	NA	NA	NA	NA	NA	NA	NA	NA	NA	NA	NA	NA	NA	NA	NA	NA	NA	NA	NA	885.9745763000101	['left', 'left', 'left', 'right', 'left']	[5.0659744997974485, 8.697619899874553, 11.118068399839103, 13.160685099894181, 14.745681999949738]	NA	NA	NA	NA	NA	NA	NA	NA	taa	001	2026-02-19_19h00.01.171	SS	2023.1.0	59.96185230019298	NA
[(0, 0), (2, 2), (0, 0), (1, 2), (0, 1), (1, 2), (1, 1), (2, 0)]	NA	NA	NA	NA	NA	NA	NA	NA	NA	NA	NA	NA	NA	NA	NA	NA	1	0	1	0	0	2	2	419	NA	NA	NA	NA	NA	NA	NA	NA	NA	NA	NA	NA	NA	NA	NA	NA	NA	NA	NA	NA	NA	NA	NA	NA	NA	NA	NA	NA	NA	NA	NA	NA	NA	902.9722140999512	['left', 'left', 'left', 'right', 'left', 'left']	[5.356405099853873, 7.104382100049406, 8.874027000041679, 10.61444709985517, 12.74998899991624, 14.947946999920532]	NA	NA	NA	NA	NA	NA	NA	NA	taa	001	2026-02-19_19h00.01.171	SS	2023.1.0	59.96185230019298	NA
[(0, 1), (2, 1), (0, 1), (2, 1), (0, 2), (0, 0), (2, 1), (1, 0)]	NA	NA	NA	NA	NA	NA	NA	NA	NA	NA	NA	NA	NA	NA	NA	NA	1	0	1	0	0	3	3	502	NA	NA	NA	NA	NA	NA	NA	NA	NA	NA	NA	NA	NA	NA	NA	NA	NA	NA	NA	NA	NA	NA	NA	NA	NA	NA	NA	NA	NA	NA	NA	NA	NA	919.9865220000502	['right', 'right', 'left', 'left', 'left', 'left']	[4.940141899976879, 6.899963299976662, 8.705627199960873, 10.692992799915373, 13.290313699981198, 14.741628699935973]	NA	NA	NA	NA	NA	NA	NA	NA	taa	001	2026-02-19_19h00.01.171	SS	2023.1.0	59.96185230019298	NA
[(2, 1), (0, 1), (2, 1), (2, 1), (2, 1), (2, 0), (2, 2), (1, 1)]	NA	NA	NA	NA	NA	NA	NA	NA	NA	NA	NA	NA	NA	NA	NA	NA	1	0	1	0	0	4	4	334	NA	NA	NA	NA	NA	NA	NA	NA	NA	NA	NA	NA	NA	NA	NA	NA	NA	NA	NA	NA	NA	NA	NA	NA	NA	NA	NA	NA	NA	NA	NA	NA	NA	936.9838118001352	['right', 'left', 'right', 'left', 'left', 'left']	[5.230745099950582, 7.006539499852806, 8.829958899877965, 10.837531700031832, 12.855031999992207, 14.725982900010422]	NA	NA	NA	NA	NA	NA	NA	NA	taa	001	2026-02-19_19h00.01.171	SS	2023.1.0	59.96185230019298	NA
[(2, 0), (2, 0), (2, 0), (2, 0), (0, 0), (2, 2), (2, 1), (2, 0)]	NA	NA	NA	NA	NA	NA	NA	NA	NA	NA	NA	NA	NA	NA	NA	NA	1	0	1	0	0	5	5	516	NA	NA	NA	NA	NA	NA	NA	NA	NA	NA	NA	NA	NA	NA	NA	NA	NA	NA	NA	NA	NA	NA	NA	NA	NA	NA	NA	NA	NA	NA	NA	NA	NA	953.965122600086	['right', 'right', 'left', 'left', 'left', 'left']	[4.899181299842894, 7.1414202998857945, 8.807244800031185, 11.059630000032485, 12.75308179995045, 14.900706399930641]	NA	NA	NA	NA	NA	NA	NA	NA	taa	001	2026-02-19_19h00.01.171	SS	2023.1.0	59.96185230019298	NA
NA	NA	NA	NA	NA	NA	NA	NA	NA	NA	NA	NA	NA	NA	NA	NA	NA	1	0	1	0	NA	NA	NA	NA	NA	NA	NA	NA	NA	NA	NA	NA	NA	NA	NA	NA	NA	NA	NA	NA	NA	NA	NA	NA	NA	NA	NA	NA	NA	NA	NA	NA	NA	NA	NA	NA	NA	NA	NA	NA	NA	NA	NA	NA	NA	NA	NA	NA	taa	001	2026-02-19_19h00.01.171	SS	2023.1.0	59.96185230019298	NA
[(0, 2), (2, 1), (2, 1), (2, 2), (2, 1), (2, 1), (0, 1), (2, 2), (1, 0)]	NA	NA	NA	NA	NA	NA	NA	NA	NA	NA	NA	NA	NA	NA	NA	NA	NA	NA	NA	NA	NA	NA	NA	NA	0	0	0	0	0	0	0	202	NA	NA	NA	NA	NA	NA	NA	NA	NA	NA	NA	NA	973.3791863000952	NA	NA	NA	NA	NA	NA	NA	NA	NA	NA	NA	NA	NA	NA	NA	976.4643666001502	977.4785108000506	['left', 'right', 'right', 'left', 'right', 'left']	[6.811663999920711, 9.321774800075218, 11.19638149999082, 12.882006600033492, 14.825994699960575, 17.14153499994427]	NA	NA	NA	NA	taa	001	2026-02-19_19h00.01.171	SS	2023.1.0	59.96185230019298	NA
[(2, 2), (1, 2), (0, 0), (2, 2), (2, 1), (0, 0), (2, 0), (0, 1), (0, 2)]	NA	NA	NA	NA	NA	NA	NA	NA	NA	NA	NA	NA	NA	NA	NA	NA	NA	NA	NA	NA	NA	NA	NA	NA	0	0	0	0	0	1	1	575	NA	NA	NA	NA	NA	NA	NA	NA	NA	NA	NA	NA	NA	NA	NA	NA	NA	NA	NA	NA	NA	NA	NA	NA	NA	NA	NA	NA	NA	996.459652800113	['right', 'left', 'right', 'left', 'right', 'left']	[7.024802299914882, 8.752556499792263, 11.185849699890241, 13.212229599710554, 15.436917799757794, 16.769864999921992]	NA	NA	NA	NA	taa	001	2026-02-19_19h00.01.171	SS	2023.1.0	59.96185230019298	NA
[(2, 0), (2, 2), (1, 2), (0, 1), (2, 2), (1, 2), (2, 0), (1, 2), (0, 0)]	NA	NA	NA	NA	NA	NA	NA	NA	NA	NA	NA	NA	NA	NA	NA	NA	NA	NA	NA	NA	NA	NA	NA	NA	0	0	0	0	0	2	2	494	NA	NA	NA	NA	NA	NA	NA	NA	NA	NA	NA	NA	NA	NA	NA	NA	NA	NA	NA	NA	NA	NA	NA	NA	NA	NA	NA	NA	NA	1015.4571877999696	['left', 'left', 'left', 'right', 'left', 'left']	[7.1208879998885095, 9.499431299744174, 11.54283869988285, 13.623205799842253, 15.22982669994235, 17.239021599758416]	NA	NA	NA	NA	taa	001	2026-02-19_19h00.01.171	SS	2023.1.0	59.96185230019298	NA
[(1, 2), (2, 2), (1, 0), (1, 2), (0, 2), (1, 2), (1, 0), (0, 2), (0, 1)]	NA	NA	NA	NA	NA	NA	NA	NA	NA	NA	NA	NA	NA	NA	NA	NA	NA	NA	NA	NA	NA	NA	NA	NA	0	0	0	0	0	3	3	186	NA	NA	NA	NA	NA	NA	NA	NA	NA	NA	NA	NA	NA	NA	NA	NA	NA	NA	NA	NA	NA	NA	NA	NA	NA	NA	NA	NA	NA	1034.4385049000848	['right', 'left', 'left', 'right', 'right', 'left']	[7.156465199775994, 8.714421099983156, 11.042444399790838, 12.858411599881947, 14.900059699779376, 17.423748799832538]	NA	NA	NA	NA	taa	001	2026-02-19_19h00.01.171	SS	2023.1.0	59.96185230019298	NA
[(2, 1), (0, 2), (0, 1), (1, 1), (0, 1), (0, 1), (1, 1), (1, 1), (0, 2)]	NA	NA	NA	NA	NA	NA	NA	NA	NA	NA	NA	NA	NA	NA	NA	NA	NA	NA	NA	NA	NA	NA	NA	NA	0	0	0	0	0	4	4	440	NA	NA	NA	NA	NA	NA	NA	NA	NA	NA	NA	NA	NA	NA	NA	NA	NA	NA	NA	NA	NA	NA	NA	NA	NA	NA	NA	NA	NA	1053.4510184000246	['left', 'left', 'right', 'left', 'right', 'right']	[7.369485999923199, 9.415619099978358, 11.35039239982143, 13.246637899894267, 15.03308379999362, 17.1642541999463]	NA	NA	NA	NA	taa	001	2026-02-19_19h00.01.171	SS	2023.1.0	59.96185230019298	NA
[(0, 1), (1, 2), (1, 2), (0, 1), (0, 1), (0, 0), (0, 1), (2, 0), (1, 2)]	NA	NA	NA	NA	NA	NA	NA	NA	NA	NA	NA	NA	NA	NA	NA	NA	NA	NA	NA	NA	NA	NA	NA	NA	0	0	0	0	0	5	5	659	NA	NA	NA	NA	NA	NA	NA	NA	NA	NA	NA	NA	NA	NA	NA	NA	NA	NA	NA	NA	NA	NA	NA	NA	NA	NA	NA	NA	NA	1072.4659438000526	['right', 'right', 'left', 'right', 'left', 'right']	[7.180294099962339, 9.24873590003699, 10.793643099954352, 13.175179400015622, 15.1796971000731, 16.973962099989876]	NA	NA	NA	NA	taa	001	2026-02-19_19h00.01.171	SS	2023.1.0	59.96185230019298	NA
NA	NA	NA	NA	NA	NA	NA	NA	NA	NA	NA	NA	NA	NA	NA	NA	NA	NA	NA	NA	NA	NA	NA	NA	NA	0	0	0	0	NA	NA	NA	NA	NA	NA	NA	NA	NA	NA	NA	NA	NA	NA	NA	NA	NA	NA	NA	NA	NA	NA	NA	NA	NA	NA	NA	NA	NA	NA	NA	NA	NA	NA	NA	NA	NA	NA	NA	NA	taa	001	2026-02-19_19h00.01.171	SS	2023.1.0	59.96185230019298	NA
[(0, 2), (2, 1), (0, 0), (0, 0), (1, 1), (0, 0), (0, 0), (0, 0), (1, 1)]	NA	NA	NA	NA	NA	NA	NA	NA	NA	NA	NA	NA	NA	NA	NA	NA	NA	NA	NA	NA	NA	NA	NA	NA	1	0	1	0	0	0	0	154	NA	NA	NA	NA	NA	NA	NA	NA	NA	NA	NA	NA	NA	NA	NA	NA	NA	NA	NA	NA	NA	NA	NA	NA	NA	NA	NA	NA	NA	1093.4291513999924	['left', 'left', 'right', 'right', 'right']	[8.037643000017852, 8.724565299926326, 13.007572999922559, 15.287396699888632, 17.155508499825373]	NA	NA	NA	NA	taa	001	2026-02-19_19h00.01.171	SS	2023.1.0	59.96185230019298	NA
[(2, 0), (1, 1), (1, 2), (2, 0), (0, 0), (1, 2), (2, 1), (1, 1), (1, 2)]	NA	NA	NA	NA	NA	NA	NA	NA	NA	NA	NA	NA	NA	NA	NA	NA	NA	NA	NA	NA	NA	NA	NA	NA	1	0	1	0	0	1	1	167	NA	NA	NA	NA	NA	NA	NA	NA	NA	NA	NA	NA	NA	NA	NA	NA	NA	NA	NA	NA	NA	NA	NA	NA	NA	NA	NA	NA	NA	1112.3939670999534	['left', 'left', 'right']	[9.065065399743617, 13.371875699842349, 17.270218099933118]	NA	NA	NA	NA	taa	001	2026-02-19_19h00.01.171	SS	2023.1.0	59.96185230019298	NA
[(2, 1), (1, 1), (1, 2), (2, 2), (1, 1), (1, 1), (2, 2), (0, 2), (0, 1)]	NA	NA	NA	NA	NA	NA	NA	NA	NA	NA	NA	NA	NA	NA	NA	NA	NA	NA	NA	NA	NA	NA	NA	NA	1	0	1	0	0	2	2	168	NA	NA	NA	NA	NA	NA	NA	NA	NA	NA	NA	NA	NA	NA	NA	NA	NA	NA	NA	NA	NA	NA	NA	NA	NA	NA	NA	NA	NA	1131.4069281001575	['left', 'right', 'left', 'left']	[6.770791499875486, 13.10463700001128, 15.239219599869102, 17.17212519980967]	NA	NA	NA	NA	taa	001	2026-02-19_19h00.01.171	SS	2023.1.0	59.96185230019298	NA
[(2, 2), (0, 1), (2, 0), (2, 2), (2, 2), (0, 1), (2, 1), (2, 2), (0, 1)]	NA	NA	NA	NA	NA	NA	NA	NA	NA	NA	NA	NA	NA	NA	NA	NA	NA	NA	NA	NA	NA	NA	NA	NA	1	0	1	0	0	3	3	591	NA	NA	NA	NA	NA	NA	NA	NA	NA	NA	NA	NA	NA	NA	NA	NA	NA	NA	NA	NA	NA	NA	NA	NA	NA	NA	NA	NA	NA	1150.4049729001708	['right', 'left', 'left', 'right']	[7.215374199906364, 9.531915999948978, 12.790967899840325, 17.108551299897954]	NA	NA	NA	NA	taa	001	2026-02-19_19h00.01.171	SS	2023.1.0	59.96185230019298	NA
[(2, 2), (1, 2), (2, 2), (0, 2), (1, 1), (2, 2), (2, 0), (2, 1), (2, 2)]	NA	NA	NA	NA	NA	NA	NA	NA	NA	NA	NA	NA	NA	NA	NA	NA	NA	NA	NA	NA	NA	NA	NA	NA	1	0	1	0	0	4	4	639	NA	NA	NA	NA	NA	NA	NA	NA	NA	NA	NA	NA	NA	NA	NA	NA	NA	NA	NA	NA	NA	NA	NA	NA	NA	NA	NA	NA	NA	1169.4019000001715	['left', 'right', 'right', 'left']	[6.856191999744624, 11.708853399846703, 13.85704579972662, 15.156022499781102]	NA	NA	NA	NA	taa	001	2026-02-19_19h00.01.171	SS	2023.1.0	59.96185230019298	NA
[(2, 0), (0, 0), (0, 0), (1, 1), (1, 2), (2, 0), (2, 0), (1, 2), (2, 0)]	NA	NA	NA	NA	NA	NA	NA	NA	NA	NA	NA	NA	NA	NA	NA	NA	NA	NA	NA	NA	NA	NA	NA	NA	1	0	1	0	0	5	5	517	NA	NA	NA	NA	NA	NA	NA	NA	NA	NA	NA	NA	NA	NA	NA	NA	NA	NA	NA	NA	NA	NA	NA	NA	NA	NA	NA	NA	NA	1188.432542799972	['left', 'left', 'left', 'left', 'left', 'right']	[6.9561669998802245, 9.101561499759555, 11.112991299945861, 13.190984399756417, 15.114569699857384, 17.333317099837586]	NA	NA	NA	NA	taa	001	2026-02-19_19h00.01.171	SS	2023.1.0	59.96185230019298	NA
NA	NA	NA	NA	NA	NA	NA	NA	NA	NA	NA	NA	NA	NA	NA	NA	NA	NA	NA	NA	NA	NA	NA	NA	NA	1	0	1	0	NA	NA	NA	NA	NA	NA	NA	NA	NA	NA	NA	NA	NA	NA	NA	NA	NA	NA	NA	NA	NA	NA	NA	NA	NA	NA	NA	NA	NA	NA	NA	NA	NA	NA	NA	NA	NA	NA	NA	NA	taa	001	2026-02-19_19h00.01.171	SS	2023.1.0	59.96185230019298	NA
[(0, 2), (0, 1), (1, 2), (0, 0), (2, 2), (2, 2), (2, 2), (0, 0), (2, 1), (2, 2)]	NA	NA	NA	NA	NA	NA	NA	NA	NA	NA	NA	NA	NA	NA	NA	NA	NA	NA	NA	NA	NA	NA	NA	NA	NA	NA	NA	NA	NA	NA	NA	NA	0	0	0	0	0	0	0	276	NA	NA	NA	NA	NA	NA	NA	NA	1207.8299771000163	NA	NA	NA	NA	NA	NA	NA	NA	NA	NA	NA	NA	NA	NA	NA	1210.9133500000462	1211.9124480001628	['left', 'left', 'left', 'right', 'left', 'right']	[8.635095399804413, 10.972404300002381, 12.975635499926284, 15.380225399974734, 17.230546899838373, 19.19497439987026]	taa	001	2026-02-19_19h00.01.171	SS	2023.1.0	59.96185230019298	NA
[(0, 2), (1, 2), (1, 1), (2, 2), (1, 0), (0, 1), (1, 1), (1, 2), (1, 0), (2, 2)]	NA	NA	NA	NA	NA	NA	NA	NA	NA	NA	NA	NA	NA	NA	NA	NA	NA	NA	NA	NA	NA	NA	NA	NA	NA	NA	NA	NA	NA	NA	NA	NA	0	0	0	0	0	1	1	433	NA	NA	NA	NA	NA	NA	NA	NA	NA	NA	NA	NA	NA	NA	NA	NA	NA	NA	NA	NA	NA	NA	NA	NA	NA	1232.9263439001516	['left', 'left', 'right', 'left', 'right', 'right']	[9.14022249984555, 11.277491600019857, 13.257522499887273, 15.256931599928066, 17.229423499898985, 19.133725699968636]	taa	001	2026-02-19_19h00.01.171	SS	2023.1.0	59.96185230019298	NA
[(1, 2), (0, 0), (2, 1), (0, 1), (1, 2), (1, 1), (0, 0), (0, 2), (0, 0), (1, 1)]	NA	NA	NA	NA	NA	NA	NA	NA	NA	NA	NA	NA	NA	NA	NA	NA	NA	NA	NA	NA	NA	NA	NA	NA	NA	NA	NA	NA	NA	NA	NA	NA	0	0	0	0	0	2	2	483	NA	NA	NA	NA	NA	NA	NA	NA	NA	NA	NA	NA	NA	NA	NA	NA	NA	NA	NA	NA	NA	NA	NA	NA	NA	1253.9235835999716	['right', 'left', 'left', 'left']	[9.09527359972708, 11.16987429978326, 13.433154299855232, 15.238923799945042]	taa	001	2026-02-19_19h00.01.171	SS	2023.1.0	59.96185230019298	NA
[(1, 0), (2, 2), (1, 2), (1, 2), (1, 0), (1, 2), (0, 0), (0, 2), (1, 0), (2, 1)]	NA	NA	NA	NA	NA	NA	NA	NA	NA	NA	NA	NA	NA	NA	NA	NA	NA	NA	NA	NA	NA	NA	NA	NA	NA	NA	NA	NA	NA	NA	NA	NA	0	0	0	0	0	3	3	442	NA	NA	NA	NA	NA	NA	NA	NA	NA	NA	NA	NA	NA	NA	NA	NA	NA	NA	NA	NA	NA	NA	NA	NA	NA	1274.9220790001564	['right', 'left', 'left', 'left', 'left']	[11.477899899939075, 13.39216939988546, 15.322312199976295, 17.167942499974743, 19.07105759996921]	taa	001	2026-02-19_19h00.01.171	SS	2023.1.0	59.96185230019298	NA
[(2, 2), (0, 2), (2, 1), (2, 2), (1, 0), (0, 0), (2, 1), (2, 2), (0, 2), (1, 0)]	NA	NA	NA	NA	NA	NA	NA	NA	NA	NA	NA	NA	NA	NA	NA	NA	NA	NA	NA	NA	NA	NA	NA	NA	NA	NA	NA	NA	NA	NA	NA	NA	0	0	0	0	0	4	4	511	NA	NA	NA	NA	NA	NA	NA	NA	NA	NA	NA	NA	NA	NA	NA	NA	NA	NA	NA	NA	NA	NA	NA	NA	NA	1295.9177143000998	['left', 'left', 'left', 'right']	[8.84550469997339, 10.702039399882779, 12.785043699899688, 14.6567363999784]	taa	001	2026-02-19_19h00.01.171	SS	2023.1.0	59.96185230019298	NA
[(2, 1), (2, 2), (2, 2), (1, 2), (2, 1), (1, 1), (2, 0), (1, 2), (1, 1), (0, 1)]	NA	NA	NA	NA	NA	NA	NA	NA	NA	NA	NA	NA	NA	NA	NA	NA	NA	NA	NA	NA	NA	NA	NA	NA	NA	NA	NA	NA	NA	NA	NA	NA	0	0	0	0	0	5	5	388	NA	NA	NA	NA	NA	NA	NA	NA	NA	NA	NA	NA	NA	NA	NA	NA	NA	NA	NA	NA	NA	NA	NA	NA	NA	1316.9003769000992	['right', 'left', 'left', 'right', 'left']	[8.818408699706197, 10.701021099695936, 13.041171799879521, 14.950043199816719, 19.054177099838853]	taa	001	2026-02-19_19h00.01.171	SS	2023.1.0	59.96185230019298	NA
NA	NA	NA	NA	NA	NA	NA	NA	NA	NA	NA	NA	NA	NA	NA	NA	NA	NA	NA	NA	NA	NA	NA	NA	NA	NA	NA	NA	NA	NA	NA	NA	NA	0	0	0	0	NA	NA	NA	NA	NA	NA	NA	NA	NA	NA	NA	NA	NA	NA	NA	NA	NA	NA	NA	NA	NA	NA	NA	NA	NA	NA	NA	NA	NA	NA	NA	NA	taa	001	2026-02-19_19h00.01.171	SS	2023.1.0	59.96185230019298	NA
[(2, 0), (0, 0), (1, 2), (1, 0), (0, 1), (2, 1), (2, 1), (1, 0), (0, 1), (2, 2)]	NA	NA	NA	NA	NA	NA	NA	NA	NA	NA	NA	NA	NA	NA	NA	NA	NA	NA	NA	NA	NA	NA	NA	NA	NA	NA	NA	NA	NA	NA	NA	NA	1	0	1	0	0	0	0	557	NA	NA	NA	NA	NA	NA	NA	NA	NA	NA	NA	NA	NA	NA	NA	NA	NA	NA	NA	NA	NA	NA	NA	NA	NA	1340.2111033000983	['left', 'left', 'left', 'left', 'left', 'left']	[8.706697299843654, 11.184187499806285, 13.209180200006813, 15.147897299844772, 17.19315019994974, 19.162298899842426]	taa	001	2026-02-19_19h00.01.171	SS	2023.1.0	59.96185230019298	NA
[(1, 0), (2, 2), (0, 0), (1, 0), (1, 0), (1, 1), (2, 0), (1, 0), (2, 2), (1, 0)]	NA	NA	NA	NA	NA	NA	NA	NA	NA	NA	NA	NA	NA	NA	NA	NA	NA	NA	NA	NA	NA	NA	NA	NA	NA	NA	NA	NA	NA	NA	NA	NA	1	0	1	0	0	1	1	642	NA	NA	NA	NA	NA	NA	NA	NA	NA	NA	NA	NA	NA	NA	NA	NA	NA	NA	NA	NA	NA	NA	NA	NA	NA	1361.2422709001694	['left', 'left', 'left', 'left']	[10.963652499951422, 13.26170299993828, 15.365842399885878, 19.393777299905196]	taa	001	2026-02-19_19h00.01.171	SS	2023.1.0	59.96185230019298	NA
[(2, 2), (1, 0), (0, 1), (1, 2), (0, 0), (1, 0), (1, 2), (1, 2), (1, 0), (2, 1)]	NA	NA	NA	NA	NA	NA	NA	NA	NA	NA	NA	NA	NA	NA	NA	NA	NA	NA	NA	NA	NA	NA	NA	NA	NA	NA	NA	NA	NA	NA	NA	NA	1	0	1	0	0	2	2	641	NA	NA	NA	NA	NA	NA	NA	NA	NA	NA	NA	NA	NA	NA	NA	NA	NA	NA	NA	NA	NA	NA	NA	NA	NA	1382.2390443000477	['left', 'left', 'left', 'left', 'left', 'left']	[9.078692799899727, 11.334367899922654, 13.411491899983957, 15.384296600008383, 17.25625370000489, 19.076165199978277]	taa	001	2026-02-19_19h00.01.171	SS	2023.1.0	59.96185230019298	NA
[(2, 1), (0, 1), (1, 0), (1, 1), (2, 1), (0, 1), (0, 1), (2, 1), (2, 0), (0, 1)]	NA	NA	NA	NA	NA	NA	NA	NA	NA	NA	NA	NA	NA	NA	NA	NA	NA	NA	NA	NA	NA	NA	NA	NA	NA	NA	NA	NA	NA	NA	NA	NA	1	0	1	0	0	3	3	539	NA	NA	NA	NA	NA	NA	NA	NA	NA	NA	NA	NA	NA	NA	NA	NA	NA	NA	NA	NA	NA	NA	NA	NA	NA	1403.2361225001514	['left', 'left', 'left']	[13.162326299818233, 15.368813999695703, 17.23726759967394]	taa	001	2026-02-19_19h00.01.171	SS	2023.1.0	59.96185230019298	NA
[(0, 0), (0, 2), (1, 1), (0, 0), (0, 1), (1, 0), (2, 2), (1, 2), (0, 1), (1, 0)]	NA	NA	NA	NA	NA	NA	NA	NA	NA	NA	NA	NA	NA	NA	NA	NA	NA	NA	NA	NA	NA	NA	NA	NA	NA	NA	NA	NA	NA	NA	NA	NA	1	0	1	0	0	4	4	2	NA	NA	NA	NA	NA	NA	NA	NA	NA	NA	NA	NA	NA	NA	NA	NA	NA	NA	NA	NA	NA	NA	NA	NA	NA	1424.532680900069	['left', 'left', 'left', 'left', 'left']	[8.938821699703112, 11.49552319967188, 12.948416599771008, 14.670572099741548, 16.521670799702406]	taa	001	2026-02-19_19h00.01.171	SS	2023.1.0	59.96185230019298	NA
[(1, 2), (0, 1), (1, 1), (0, 1), (0, 1), (0, 1), (2, 2), (0, 1), (0, 1), (0, 0)]	NA	NA	NA	NA	NA	NA	NA	NA	NA	NA	NA	NA	NA	NA	NA	NA	NA	NA	NA	NA	NA	NA	NA	NA	NA	NA	NA	NA	NA	NA	NA	NA	1	0	1	0	0	5	5	416	NA	NA	NA	NA	NA	NA	NA	NA	NA	NA	NA	NA	NA	NA	NA	NA	NA	NA	NA	NA	NA	NA	NA	NA	NA	1445.2136429999955	['right', 'right', 'left', 'right', 'left']	[8.888533700024709, 11.099186899838969, 12.866422899998724, 14.964891699841246, 18.871637400006875]	taa	001	2026-02-19_19h00.01.171	SS	2023.1.0	59.96185230019298	NA
NA	NA	NA	NA	NA	NA	NA	NA	NA	NA	NA	NA	NA	NA	NA	NA	NA	NA	NA	NA	NA	NA	NA	NA	NA	NA	NA	NA	NA	NA	NA	NA	NA	1	0	1	0	NA	NA	NA	NA	NA	NA	NA	NA	NA	NA	NA	NA	NA	NA	NA	NA	NA	NA	NA	NA	NA	NA	NA	NA	NA	NA	NA	NA	NA	NA	NA	NA	taa	001	2026-02-19_19h00.01.171	SS	2023.1.0	59.96185230019298	NA
