imagefile	stimfile	corrAns	MRdir	angle	training.thisRepN	training.thisTrialN	training.thisN	training.thisIndex	mentalrot_trials.thisRepN	mentalrot_trials.thisTrialN	mentalrot_trials.thisN	mentalrot_trials.thisIndex	blank.started	mr_answ_2.started	mr_answ_2.keys	mr_answ_2.corr	mr_answ_2.rt	blank.stopped	mr_answ.started	mr_answ.keys	mr_answ.corr	mr_answ.rt	byebye_text.started	participant	session	date	expName	psychopyVersion	frameRate	...31
mr_images/3_a.png	mr_images/3_a_z_270.png	left	ccw	90	0	0	0	79	NA	NA	NA	NA	75.29319430002943	75.80974970012903	None	0	NA	NA	NA	NA	NA	NA	NA	BMI	001	2026-03-13_13h41.14.891	MR	2023.1.0	59.98598727840456	NA
mr_images/1_a.png	mr_images/1_b_z_45.png	right	cw	45	0	1	1	0	NA	NA	NA	NA	80.6926617003046	81.26237070001662	left	0	3.7297756001353264	NA	NA	NA	NA	NA	NA	BMI	001	2026-03-13_13h41.14.891	MR	2023.1.0	59.98598727840456	NA
mr_images/7_b.png	mr_images/7_b_z_135.png	left	cw	135	0	2	2	189	NA	NA	NA	NA	85.01275640027598	85.59194240020588	right	0	2.249489199835807	85.59194240020588	NA	NA	NA	NA	NA	BMI	001	2026-03-13_13h41.14.891	MR	2023.1.0	59.98598727840456	NA
mr_images/5_b.png	mr_images/5_b_z_315.png	left	ccw	45	0	3	3	135	NA	NA	NA	NA	87.8582146000117	88.42650120006874	left	1	2.546207900159061	88.42650120006874	NA	NA	NA	NA	NA	BMI	001	2026-03-13_13h41.14.891	MR	2023.1.0	59.98598727840456	NA
mr_images/9_b.png	mr_images/9_b_z_270.png	left	ccw	90	0	4	4	211	NA	NA	NA	NA	90.99530739989132	91.57439369987696	right	0	3.1700875000096858	91.57439369987696	NA	NA	NA	NA	NA	BMI	001	2026-03-13_13h41.14.891	MR	2023.1.0	59.98598727840456	NA
mr_images/9_a.png	mr_images/9_b_z_315.png	right	ccw	45	NA	NA	NA	NA	0	0	0	194	99.72619580011816	NA	NA	NA	NA	NA	100.18969830032438	left	0	2.811668800190091	NA	BMI	001	2026-03-13_13h41.14.891	MR	2023.1.0	59.98598727840456	NA
mr_images/12_a.png	mr_images/12_b_z_135.png	right	cw	135	NA	NA	NA	NA	0	1	1	56	103.02273650001734	NA	NA	NA	NA	103.5929728001356	103.5929728001356	right	1	1.7886210004799068	NA	BMI	001	2026-03-13_13h41.14.891	MR	2023.1.0	59.98598727840456	NA
mr_images/12_b.png	mr_images/12_b_z_315.png	left	ccw	45	NA	NA	NA	NA	0	2	2	63	105.40997479995713	NA	NA	NA	NA	105.97468989994375	105.97468989994375	right	0	2.647226999979466	NA	BMI	001	2026-03-13_13h41.14.891	MR	2023.1.0	59.98598727840456	NA
mr_images/11_b.png	mr_images/11_a_z_45.png	right	cw	45	NA	NA	NA	NA	0	3	3	36	108.64322860026732	NA	NA	NA	NA	109.2217920999974	109.2217920999974	left	0	1.8898655003868043	NA	BMI	001	2026-03-13_13h41.14.891	MR	2023.1.0	59.98598727840456	NA
mr_images/6_b.png	mr_images/6_a_z_315.png	right	ccw	45	NA	NA	NA	NA	0	4	4	158	111.13827460026368	NA	NA	NA	NA	111.72162270033732	111.72162270033732	left	0	2.265013800468296	NA	BMI	001	2026-03-13_13h41.14.891	MR	2023.1.0	59.98598727840456	NA
mr_images/4_a.png	mr_images/4_a_z_315.png	left	ccw	45	NA	NA	NA	NA	0	5	5	99	114.00480400025845	NA	NA	NA	NA	114.57404999993742	114.57404999993742	right	0	2.0340603003278375	NA	BMI	001	2026-03-13_13h41.14.891	MR	2023.1.0	59.98598727840456	NA
mr_images/12_a.png	mr_images/12_a_z_135.png	left	cw	135	NA	NA	NA	NA	0	6	6	57	116.62494269991294	NA	NA	NA	NA	117.17078390019014	117.17078390019014	left	1	2.40783130005002	NA	BMI	001	2026-03-13_13h41.14.891	MR	2023.1.0	59.98598727840456	NA
mr_images/12_b.png	mr_images/12_b_z_135.png	left	cw	135	NA	NA	NA	NA	0	7	7	69	119.60380259994416	NA	NA	NA	NA	120.13703140011056	120.13703140011056	right	0	2.4494938999414444	NA	BMI	001	2026-03-13_13h41.14.891	MR	2023.1.0	59.98598727840456	NA
mr_images/11_b.png	mr_images/11_b_z_225.png	left	ccw	135	NA	NA	NA	NA	0	8	8	47	122.6034234999679	NA	NA	NA	NA	123.1699590003118	123.1699590003118	left	1	2.6182006001472473	NA	BMI	001	2026-03-13_13h41.14.891	MR	2023.1.0	59.98598727840456	NA
mr_images/9_a.png	mr_images/9_a_z_270.png	left	ccw	90	NA	NA	NA	NA	0	9	9	199	125.81958759995176	NA	NA	NA	NA	126.3695934000425	126.3695934000425	left	1	2.1992285000160336	NA	BMI	001	2026-03-13_13h41.14.891	MR	2023.1.0	59.98598727840456	NA
mr_images/6_b.png	mr_images/6_b_z_135.png	left	cw	135	NA	NA	NA	NA	0	10	10	165	128.58653030032292	NA	NA	NA	NA	129.11893620016053	129.11893620016053	right	0	2.234293300192803	NA	BMI	001	2026-03-13_13h41.14.891	MR	2023.1.0	59.98598727840456	NA
mr_images/3_b.png	mr_images/3_a_z_315.png	right	ccw	45	NA	NA	NA	NA	0	11	11	86	131.38559389999136	NA	NA	NA	NA	131.93506709998474	131.93506709998474	left	0	1.6110632000491023	NA	BMI	001	2026-03-13_13h41.14.891	MR	2023.1.0	59.98598727840456	NA
mr_images/4_a.png	mr_images/4_b_z_45.png	right	cw	45	NA	NA	NA	NA	0	12	12	96	133.56851190002635	NA	NA	NA	NA	134.13508580019698	134.13508580019698	right	1	1.9142436999827623	NA	BMI	001	2026-03-13_13h41.14.891	MR	2023.1.0	59.98598727840456	NA
mr_images/1_a.png	mr_images/1_a_z_270.png	left	ccw	90	NA	NA	NA	NA	0	13	13	7	136.06811759993434	NA	NA	NA	NA	136.61808850010857	136.61808850010857	left	1	3.138911200221628	NA	BMI	001	2026-03-13_13h41.14.891	MR	2023.1.0	59.98598727840456	NA
mr_images/4_a.png	mr_images/4_a_z_45.png	left	cw	45	NA	NA	NA	NA	0	14	14	97	139.78436180017889	NA	NA	NA	NA	140.3345880000852	140.3345880000852	left	1	2.7267334000207484	NA	BMI	001	2026-03-13_13h41.14.891	MR	2023.1.0	59.98598727840456	NA
mr_images/4_b.png	mr_images/4_b_z_135.png	left	cw	135	NA	NA	NA	NA	0	15	15	117	143.08396340021864	NA	NA	NA	NA	143.65046619996428	143.65046619996428	right	0	1.8561820001341405	NA	BMI	001	2026-03-13_13h41.14.891	MR	2023.1.0	59.98598727840456	NA
mr_images/12_a.png	mr_images/12_b_z_315.png	right	ccw	45	NA	NA	NA	NA	0	16	16	50	145.53369500022382	NA	NA	NA	NA	146.06666480004787	146.06666480004787	left	0	1.5967546999454498	NA	BMI	001	2026-03-13_13h41.14.891	MR	2023.1.0	59.98598727840456	NA
mr_images/7_b.png	mr_images/7_a_z_135.png	right	cw	135	NA	NA	NA	NA	0	17	17	188	147.68327730009332	NA	NA	NA	NA	148.25012960005552	148.25012960005552	left	0	1.95715850032866	NA	BMI	001	2026-03-13_13h41.14.891	MR	2023.1.0	59.98598727840456	NA
mr_images/9_b.png	mr_images/9_a_z_270.png	right	ccw	90	NA	NA	NA	NA	0	18	18	210	150.2328631002456	NA	NA	NA	NA	150.76602669991553	150.76602669991553	left	0	1.6402035001665354	NA	BMI	001	2026-03-13_13h41.14.891	MR	2023.1.0	59.98598727840456	NA
mr_images/3_a.png	mr_images/3_b_z_315.png	right	ccw	45	NA	NA	NA	NA	0	19	19	74	152.4324477002956	NA	NA	NA	NA	152.98345200018957	152.98345200018957	left	0	1.3904864001087844	NA	BMI	001	2026-03-13_13h41.14.891	MR	2023.1.0	59.98598727840456	NA
mr_images/1_b.png	mr_images/1_b_z_90.png	left	cw	90	NA	NA	NA	NA	0	20	20	17	154.39894179999828	NA	NA	NA	NA	154.9822174999863	154.9822174999863	right	0	1.7652043998241425	NA	BMI	001	2026-03-13_13h41.14.891	MR	2023.1.0	59.98598727840456	NA
mr_images/4_a.png	mr_images/4_a_z_225.png	left	ccw	135	NA	NA	NA	NA	0	21	21	107	156.76535220025107	NA	NA	NA	NA	157.33170480001718	157.33170480001718	left	1	2.634970599785447	NA	BMI	001	2026-03-13_13h41.14.891	MR	2023.1.0	59.98598727840456	NA
mr_images/1_a.png	mr_images/1_a_z_315.png	left	ccw	45	NA	NA	NA	NA	0	22	22	3	159.99801209988073	NA	NA	NA	NA	160.54812980024144	160.54812980024144	right	0	2.1606336003169417	NA	BMI	001	2026-03-13_13h41.14.891	MR	2023.1.0	59.98598727840456	NA
mr_images/1_a.png	mr_images/1_a_z_90.png	left	cw	90	NA	NA	NA	NA	0	23	23	5	162.7313713999465	NA	NA	NA	NA	163.28093060012907	163.28093060012907	right	0	2.2900860998779535	NA	BMI	001	2026-03-13_13h41.14.891	MR	2023.1.0	59.98598727840456	NA
mr_images/4_a.png	mr_images/4_b_z_135.png	right	cw	135	NA	NA	NA	NA	0	24	24	104	165.5974520999007	NA	NA	NA	NA	166.1305221002549	166.1305221002549	left	0	2.1468790001235902	NA	BMI	001	2026-03-13_13h41.14.891	MR	2023.1.0	59.98598727840456	NA
mr_images/3_b.png	mr_images/3_b_z_90.png	left	cw	90	NA	NA	NA	NA	0	25	25	89	168.2971625002101	NA	NA	NA	NA	168.863530700095	168.863530700095	right	0	3.0333060999400914	NA	BMI	001	2026-03-13_13h41.14.891	MR	2023.1.0	59.98598727840456	NA
mr_images/3_b.png	mr_images/3_b_z_315.png	left	ccw	45	NA	NA	NA	NA	0	26	26	87	171.91317990003154	NA	NA	NA	NA	172.4462191001512	172.4462191001512	right	0	1.4897231999784708	NA	BMI	001	2026-03-13_13h41.14.891	MR	2023.1.0	59.98598727840456	NA
mr_images/7_b.png	mr_images/7_b_z_135.png	left	cw	135	NA	NA	NA	NA	0	27	27	189	173.9630090002902	NA	NA	NA	NA	174.49611059995368	174.49611059995368	right	0	3.007423600181937	NA	BMI	001	2026-03-13_13h41.14.891	MR	2023.1.0	59.98598727840456	NA
mr_images/6_b.png	mr_images/6_a_z_270.png	right	ccw	90	NA	NA	NA	NA	0	28	28	162	177.52906240010634	NA	NA	NA	NA	178.06227200012654	178.06227200012654	left	0	2.0681680999696255	NA	BMI	001	2026-03-13_13h41.14.891	MR	2023.1.0	59.98598727840456	NA
mr_images/7_a.png	mr_images/7_b_z_90.png	right	cw	90	NA	NA	NA	NA	0	29	29	172	180.16363679990172	NA	NA	NA	NA	NA	180.73088470008224	right	1	2.668852100148797	NA	BMI	001	2026-03-13_13h41.14.891	MR	2023.1.0	59.98598727840456	NA
mr_images/4_b.png	mr_images/4_b_z_90.png	left	cw	90	NA	NA	NA	NA	0	30	30	113	183.4158618999645	NA	NA	NA	NA	183.96507490007207	183.96507490007207	right	0	3.1145053999498487	NA	BMI	001	2026-03-13_13h41.14.891	MR	2023.1.0	59.98598727840456	NA
mr_images/4_b.png	mr_images/4_b_z_270.png	left	ccw	90	NA	NA	NA	NA	0	31	31	115	187.0986620001495	NA	NA	NA	NA	187.64906649990007	187.64906649990007	right	0	2.8683094000443816	NA	BMI	001	2026-03-13_13h41.14.891	MR	2023.1.0	59.98598727840456	NA
mr_images/3_b.png	mr_images/3_a_z_135.png	right	cw	135	NA	NA	NA	NA	0	32	32	92	190.54823810001835	NA	NA	NA	NA	191.08188260020688	191.08188260020688	left	0	1.3625833997502923	NA	BMI	001	2026-03-13_13h41.14.891	MR	2023.1.0	59.98598727840456	NA
mr_images/11_a.png	mr_images/11_a_z_90.png	left	cw	90	NA	NA	NA	NA	0	33	33	29	192.4649277999997	NA	NA	NA	NA	193.04400830017403	193.04400830017403	left	1	2.330779700074345	NA	BMI	001	2026-03-13_13h41.14.891	MR	2023.1.0	59.98598727840456	NA
mr_images/1_a.png	mr_images/1_b_z_270.png	right	ccw	90	NA	NA	NA	NA	0	34	34	6	195.39327460015193	NA	NA	NA	NA	195.945786499884	195.945786499884	right	1	3.7343979999423023	NA	BMI	001	2026-03-13_13h41.14.891	MR	2023.1.0	59.98598727840456	NA
mr_images/6_b.png	mr_images/6_b_z_45.png	left	cw	45	NA	NA	NA	NA	0	35	35	157	199.69685199996457	NA	NA	NA	NA	200.246379500255	200.246379500255	right	0	2.9457030999474227	NA	BMI	001	2026-03-13_13h41.14.891	MR	2023.1.0	59.98598727840456	NA
mr_images/11_b.png	mr_images/11_a_z_225.png	right	ccw	135	NA	NA	NA	NA	0	36	36	46	203.2090052003041	NA	NA	NA	NA	203.7587398001924	203.7587398001924	left	0	1.6385625004768372	NA	BMI	001	2026-03-13_13h41.14.891	MR	2023.1.0	59.98598727840456	NA
mr_images/1_b.png	mr_images/1_a_z_270.png	right	ccw	90	NA	NA	NA	NA	0	37	37	18	205.42555260006336	NA	NA	NA	NA	205.96477770013735	205.96477770013735	right	1	3.4544819998554885	NA	BMI	001	2026-03-13_13h41.14.891	MR	2023.1.0	59.98598727840456	NA
mr_images/3_a.png	mr_images/3_a_z_315.png	left	ccw	45	NA	NA	NA	NA	0	38	38	75	209.50789309991524	NA	NA	NA	NA	210.0440211002715	210.0440211002715	right	0	1.5209168000146749	NA	BMI	001	2026-03-13_13h41.14.891	MR	2023.1.0	59.98598727840456	NA
mr_images/4_b.png	mr_images/4_a_z_225.png	right	ccw	135	NA	NA	NA	NA	0	39	39	118	211.59528949996457	NA	NA	NA	NA	212.1274681002833	212.1274681002833	left	0	1.8186916001141071	NA	BMI	001	2026-03-13_13h41.14.891	MR	2023.1.0	59.98598727840456	NA
mr_images/9_a.png	mr_images/9_a_z_90.png	left	cw	90	NA	NA	NA	NA	0	40	40	197	213.97820980008692	NA	NA	NA	NA	214.54052809998393	214.54052809998393	right	0	2.5794565002433956	NA	BMI	001	2026-03-13_13h41.14.891	MR	2023.1.0	59.98598727840456	NA
mr_images/7_a.png	mr_images/7_a_z_90.png	left	cw	90	NA	NA	NA	NA	0	41	41	173	217.1401261999272	NA	NA	NA	NA	217.6904196999967	217.6904196999967	right	0	2.5665208999998868	NA	BMI	001	2026-03-13_13h41.14.891	MR	2023.1.0	59.98598727840456	NA
mr_images/7_b.png	mr_images/7_b_z_90.png	left	cw	90	NA	NA	NA	NA	0	42	42	185	220.27345289988443	NA	NA	NA	NA	220.80628499994057	220.80628499994057	right	0	3.2372725000604987	NA	BMI	001	2026-03-13_13h41.14.891	MR	2023.1.0	59.98598727840456	NA
mr_images/3_b.png	mr_images/3_b_z_225.png	left	ccw	135	NA	NA	NA	NA	0	43	43	95	224.0726769999601	NA	NA	NA	NA	224.62778329988944	224.62778329988944	left	1	3.9059294001199305	NA	BMI	001	2026-03-13_13h41.14.891	MR	2023.1.0	59.98598727840456	NA
mr_images/7_a.png	mr_images/7_a_z_135.png	left	cw	135	NA	NA	NA	NA	0	44	44	177	228.5596178001724	NA	NA	NA	NA	229.0883738999255	229.0883738999255	right	0	2.8306906004436314	NA	BMI	001	2026-03-13_13h41.14.891	MR	2023.1.0	59.98598727840456	NA
mr_images/1_b.png	mr_images/1_b_z_45.png	left	cw	45	NA	NA	NA	NA	0	45	45	13	231.93820900004357	NA	NA	NA	NA	232.48804960027337	232.48804960027337	right	0	3.448603500146419	NA	BMI	001	2026-03-13_13h41.14.891	MR	2023.1.0	59.98598727840456	NA
mr_images/4_a.png	mr_images/4_a_z_90.png	left	cw	90	NA	NA	NA	NA	0	46	46	101	235.95430930005384	NA	NA	NA	NA	236.50739919999617	236.50739919999617	right	0	2.984201400540769	NA	BMI	001	2026-03-13_13h41.14.891	MR	2023.1.0	59.98598727840456	NA
mr_images/5_a.png	mr_images/5_b_z_135.png	right	cw	135	NA	NA	NA	NA	0	47	47	128	239.50803030002865	NA	NA	NA	NA	240.08737670024857	240.08737670024857	left	0	3.35169930011034	NA	BMI	001	2026-03-13_13h41.14.891	MR	2023.1.0	59.98598727840456	NA
mr_images/4_b.png	mr_images/4_a_z_90.png	right	cw	90	NA	NA	NA	NA	0	48	48	112	243.4701066999696	NA	NA	NA	NA	244.00309900008145	244.00309900008145	left	0	1.818375499919057	NA	BMI	001	2026-03-13_13h41.14.891	MR	2023.1.0	59.98598727840456	NA
mr_images/6_a.png	mr_images/6_b_z_225.png	right	ccw	135	NA	NA	NA	NA	0	49	49	154	245.85297740017995	NA	NA	NA	NA	246.4361569001339	246.4361569001339	left	0	3.304968800395727	NA	BMI	001	2026-03-13_13h41.14.891	MR	2023.1.0	59.98598727840456	NA
mr_images/9_b.png	mr_images/9_a_z_90.png	right	cw	90	NA	NA	NA	NA	0	50	50	208	249.76914589991793	NA	NA	NA	NA	250.30223509995267	250.30223509995267	left	0	2.43910859990865	NA	BMI	001	2026-03-13_13h41.14.891	MR	2023.1.0	59.98598727840456	NA
mr_images/1_a.png	mr_images/1_b_z_45.png	right	cw	45	NA	NA	NA	NA	0	51	51	0	252.76860280008987	NA	NA	NA	NA	253.28827230026943	253.28827230026943	left	0	2.9256663997657597	NA	BMI	001	2026-03-13_13h41.14.891	MR	2023.1.0	59.98598727840456	NA
mr_images/9_b.png	mr_images/9_b_z_225.png	left	ccw	135	NA	NA	NA	NA	0	52	52	215	256.2390376999974	NA	NA	NA	NA	256.7849558000453	256.7849558000453	right	0	1.5796847003512084	NA	BMI	001	2026-03-13_13h41.14.891	MR	2023.1.0	59.98598727840456	NA
mr_images/5_a.png	mr_images/5_b_z_225.png	right	ccw	135	NA	NA	NA	NA	0	53	53	130	258.384622100275	NA	NA	NA	NA	258.93457810021937	258.93457810021937	left	0	3.0006591002456844	NA	BMI	001	2026-03-13_13h41.14.891	MR	2023.1.0	59.98598727840456	NA
mr_images/12_a.png	mr_images/12_a_z_270.png	left	ccw	90	NA	NA	NA	NA	0	54	54	55	261.96735269995406	NA	NA	NA	NA	262.5339840003289	262.5339840003289	right	0	3.2131391000002623	NA	BMI	001	2026-03-13_13h41.14.891	MR	2023.1.0	59.98598727840456	NA
mr_images/9_b.png	mr_images/9_a_z_315.png	right	ccw	45	NA	NA	NA	NA	0	55	55	206	265.76683370023966	NA	NA	NA	NA	266.31664940016344	266.31664940016344	left	0	1.507686400320381	NA	BMI	001	2026-03-13_13h41.14.891	MR	2023.1.0	59.98598727840456	NA
mr_images/11_a.png	mr_images/11_b_z_45.png	right	cw	45	NA	NA	NA	NA	0	56	56	24	267.84998749988154	NA	NA	NA	NA	268.4164881003089	268.4164881003089	left	0	3.0753297000192106	NA	BMI	001	2026-03-13_13h41.14.891	MR	2023.1.0	59.98598727840456	NA
mr_images/1_a.png	mr_images/1_b_z_90.png	right	cw	90	NA	NA	NA	NA	0	57	57	4	271.51602560002357	NA	NA	NA	NA	272.06605469994247	272.06605469994247	left	0	3.0926255001686513	NA	BMI	001	2026-03-13_13h41.14.891	MR	2023.1.0	59.98598727840456	NA
mr_images/5_a.png	mr_images/5_a_z_135.png	left	cw	135	NA	NA	NA	NA	0	58	58	129	275.1824854002334	NA	NA	NA	NA	275.74894430022687	275.74894430022687	right	0	2.9805644997395575	NA	BMI	001	2026-03-13_13h41.14.891	MR	2023.1.0	59.98598727840456	NA
mr_images/3_b.png	mr_images/3_a_z_90.png	right	cw	90	NA	NA	NA	NA	0	59	59	88	278.7482990999706	NA	NA	NA	NA	279.3149613002315	279.3149613002315	right	1	4.074600999709219	NA	BMI	001	2026-03-13_13h41.14.891	MR	2023.1.0	59.98598727840456	NA
mr_images/11_b.png	mr_images/11_b_z_270.png	left	ccw	90	NA	NA	NA	NA	0	60	60	43	283.414381199982	NA	NA	NA	NA	283.96910170000046	283.96910170000046	right	0	2.8273508003912866	NA	BMI	001	2026-03-13_13h41.14.891	MR	2023.1.0	59.98598727840456	NA
mr_images/12_a.png	mr_images/12_b_z_270.png	right	ccw	90	NA	NA	NA	NA	0	61	61	54	286.81817980017513	NA	NA	NA	NA	287.3678553001955	287.3678553001955	left	0	1.3809253997169435	NA	BMI	001	2026-03-13_13h41.14.891	MR	2023.1.0	59.98598727840456	NA
mr_images/1_a.png	mr_images/1_a_z_225.png	left	ccw	135	NA	NA	NA	NA	0	62	62	11	288.7678632000461	NA	NA	NA	NA	289.3137794001959	289.3137794001959	left	1	2.812734500039369	NA	BMI	001	2026-03-13_13h41.14.891	MR	2023.1.0	59.98598727840456	NA
mr_images/7_b.png	mr_images/7_a_z_45.png	right	cw	45	NA	NA	NA	NA	0	63	63	180	292.1464824001305	NA	NA	NA	NA	292.69635159987956	292.69635159987956	left	0	2.381849199999124	NA	BMI	001	2026-03-13_13h41.14.891	MR	2023.1.0	59.98598727840456	NA
mr_images/3_b.png	mr_images/3_a_z_270.png	right	ccw	90	NA	NA	NA	NA	0	64	64	90	295.0961068999022	NA	NA	NA	NA	295.61466460023075	295.61466460023075	left	0	1.7143285004422069	NA	BMI	001	2026-03-13_13h41.14.891	MR	2023.1.0	59.98598727840456	NA
mr_images/6_a.png	mr_images/6_a_z_225.png	left	ccw	135	NA	NA	NA	NA	0	65	65	155	297.35008660005406	NA	NA	NA	NA	297.89893819997087	297.89893819997087	right	0	2.0265719001181424	NA	BMI	001	2026-03-13_13h41.14.891	MR	2023.1.0	59.98598727840456	NA
mr_images/12_a.png	mr_images/12_a_z_315.png	left	ccw	45	NA	NA	NA	NA	0	66	66	51	299.9496929002926	NA	NA	NA	NA	300.51189070008695	300.51189070008695	left	1	2.095705599989742	NA	BMI	001	2026-03-13_13h41.14.891	MR	2023.1.0	59.98598727840456	NA
mr_images/3_b.png	mr_images/3_a_z_225.png	right	ccw	135	NA	NA	NA	NA	0	67	67	94	302.62843629997224	NA	NA	NA	NA	303.18062510015443	303.18062510015443	left	0	2.70529819978401	NA	BMI	001	2026-03-13_13h41.14.891	MR	2023.1.0	59.98598727840456	NA
mr_images/11_a.png	mr_images/11_a_z_270.png	left	ccw	90	NA	NA	NA	NA	0	68	68	31	305.91556859994307	NA	NA	NA	NA	306.4779036003165	306.4779036003165	right	0	1.767603900283575	NA	BMI	001	2026-03-13_13h41.14.891	MR	2023.1.0	59.98598727840456	NA
mr_images/5_b.png	mr_images/5_b_z_270.png	left	ccw	90	NA	NA	NA	NA	0	69	69	139	308.2774062999524	NA	NA	NA	NA	308.8286194000393	308.8286194000393	right	0	3.3940589004196227	NA	BMI	001	2026-03-13_13h41.14.891	MR	2023.1.0	59.98598727840456	NA
mr_images/11_a.png	mr_images/11_a_z_225.png	left	ccw	135	NA	NA	NA	NA	0	70	70	35	312.2437356999144	NA	NA	NA	NA	312.776956200134	312.776956200134	right	0	3.133843500167131	NA	BMI	001	2026-03-13_13h41.14.891	MR	2023.1.0	59.98598727840456	NA
mr_images/11_a.png	mr_images/11_b_z_225.png	right	ccw	135	NA	NA	NA	NA	0	71	71	34	315.9435121002607	NA	NA	NA	NA	316.4765572003089	316.4765572003089	left	0	2.7192823998630047	NA	BMI	001	2026-03-13_13h41.14.891	MR	2023.1.0	59.98598727840456	NA
mr_images/9_b.png	mr_images/9_a_z_45.png	right	cw	45	NA	NA	NA	NA	0	72	72	204	319.22642040019855	NA	NA	NA	NA	319.7761045000516	319.7761045000516	left	0	3.349856600165367	NA	BMI	001	2026-03-13_13h41.14.891	MR	2023.1.0	59.98598727840456	NA
mr_images/11_a.png	mr_images/11_b_z_315.png	right	ccw	45	NA	NA	NA	NA	0	73	73	26	323.14219340030104	NA	NA	NA	NA	323.69214020017534	323.69214020017534	left	0	1.8632133002392948	NA	BMI	001	2026-03-13_13h41.14.891	MR	2023.1.0	59.98598727840456	NA
mr_images/1_b.png	mr_images/1_a_z_135.png	right	cw	135	NA	NA	NA	NA	0	74	74	20	325.5753363999538	NA	NA	NA	NA	326.12598180025816	326.12598180025816	right	1	2.3171791001223028	NA	BMI	001	2026-03-13_13h41.14.891	MR	2023.1.0	59.98598727840456	NA
mr_images/6_b.png	mr_images/6_b_z_315.png	left	ccw	45	NA	NA	NA	NA	0	75	75	159	328.4748089001514	NA	NA	NA	NA	329.0413994002156	329.0413994002156	right	0	3.572404900100082	NA	BMI	001	2026-03-13_13h41.14.891	MR	2023.1.0	59.98598727840456	NA
mr_images/3_b.png	mr_images/3_b_z_45.png	left	cw	45	NA	NA	NA	NA	0	76	76	85	332.6409165998921	NA	NA	NA	NA	333.2075845003128	333.2075845003128	right	0	3.030419200193137	NA	BMI	001	2026-03-13_13h41.14.891	MR	2023.1.0	59.98598727840456	NA
mr_images/4_a.png	mr_images/4_b_z_315.png	right	ccw	45	NA	NA	NA	NA	0	77	77	98	336.2570605003275	NA	NA	NA	NA	336.80686900019646	336.80686900019646	left	0	1.8166416003368795	NA	BMI	001	2026-03-13_13h41.14.891	MR	2023.1.0	59.98598727840456	NA
mr_images/12_b.png	mr_images/12_b_z_90.png	left	cw	90	NA	NA	NA	NA	0	78	78	65	338.64022190030664	NA	NA	NA	NA	339.2067549000494	339.2067549000494	right	0	4.5769337001256645	NA	BMI	001	2026-03-13_13h41.14.891	MR	2023.1.0	59.98598727840456	NA
mr_images/5_a.png	mr_images/5_b_z_270.png	right	ccw	90	NA	NA	NA	NA	0	79	79	126	343.8058708999306	NA	NA	NA	NA	344.33993920031935	344.33993920031935	left	0	1.397541900165379	NA	BMI	001	2026-03-13_13h41.14.891	MR	2023.1.0	59.98598727840456	NA
mr_images/9_a.png	mr_images/9_a_z_45.png	left	cw	45	NA	NA	NA	NA	0	80	80	193	345.7558630001731	NA	NA	NA	NA	346.2888605003245	346.2888605003245	right	0	1.7277593999169767	NA	BMI	001	2026-03-13_13h41.14.891	MR	2023.1.0	59.98598727840456	NA
mr_images/1_b.png	mr_images/1_b_z_270.png	left	ccw	90	NA	NA	NA	NA	0	81	81	19	348.03875740012154	NA	NA	NA	NA	348.5719567001797	348.5719567001797	right	0	2.4547278000973165	NA	BMI	001	2026-03-13_13h41.14.891	MR	2023.1.0	59.98598727840456	NA
mr_images/5_a.png	mr_images/5_a_z_90.png	left	cw	90	NA	NA	NA	NA	0	82	82	125	351.0550041999668	NA	NA	NA	NA	351.60609220014885	351.60609220014885	right	0	2.9417614000849426	NA	BMI	001	2026-03-13_13h41.14.891	MR	2023.1.0	59.98598727840456	NA
mr_images/4_b.png	mr_images/4_b_z_225.png	left	ccw	135	NA	NA	NA	NA	0	83	83	119	354.57158369990066	NA	NA	NA	NA	355.13778269989416	355.13778269989416	right	0	2.2660535001195967	NA	BMI	001	2026-03-13_13h41.14.891	MR	2023.1.0	59.98598727840456	NA
mr_images/4_a.png	mr_images/4_a_z_270.png	left	ccw	90	NA	NA	NA	NA	0	84	84	103	357.4207132002339	NA	NA	NA	NA	357.9739554002881	357.9739554002881	right	0	2.7959103998728096	NA	BMI	001	2026-03-13_13h41.14.891	MR	2023.1.0	59.98598727840456	NA
mr_images/9_b.png	mr_images/9_b_z_315.png	left	ccw	45	NA	NA	NA	NA	0	85	85	207	360.7911882000044	NA	NA	NA	NA	361.3204354001209	361.3204354001209	right	0	3.045844600070268	NA	BMI	001	2026-03-13_13h41.14.891	MR	2023.1.0	59.98598727840456	NA
mr_images/12_a.png	mr_images/12_b_z_90.png	right	cw	90	NA	NA	NA	NA	0	86	86	52	364.3864502999931	NA	NA	NA	NA	364.9196119001135	364.9196119001135	left	0	2.944606200326234	NA	BMI	001	2026-03-13_13h41.14.891	MR	2023.1.0	59.98598727840456	NA
mr_images/7_a.png	mr_images/7_b_z_225.png	right	ccw	135	NA	NA	NA	NA	0	87	87	178	367.8860610001721	NA	NA	NA	NA	368.4526200001128	368.4526200001128	left	0	1.6119595998898149	NA	BMI	001	2026-03-13_13h41.14.891	MR	2023.1.0	59.98598727840456	NA
mr_images/12_a.png	mr_images/12_b_z_45.png	right	cw	45	NA	NA	NA	NA	0	88	88	48	370.08571680029854	NA	NA	NA	NA	370.63719950011	370.63719950011	left	0	2.181052000261843	NA	BMI	001	2026-03-13_13h41.14.891	MR	2023.1.0	59.98598727840456	NA
mr_images/4_a.png	mr_images/4_b_z_90.png	right	cw	90	NA	NA	NA	NA	0	89	89	100	372.83540310012177	NA	NA	NA	NA	373.351916000247	373.351916000247	left	0	2.513925099745393	NA	BMI	001	2026-03-13_13h41.14.891	MR	2023.1.0	59.98598727840456	NA
mr_images/6_a.png	mr_images/6_b_z_45.png	right	cw	45	NA	NA	NA	NA	0	90	90	144	375.8847284000367	NA	NA	NA	NA	376.4347371002659	376.4347371002659	left	0	1.7674567997455597	NA	BMI	001	2026-03-13_13h41.14.891	MR	2023.1.0	59.98598727840456	NA
mr_images/5_b.png	mr_images/5_a_z_270.png	right	ccw	90	NA	NA	NA	NA	0	91	91	138	378.23455250030383	NA	NA	NA	NA	378.7844330002554	378.7844330002554	left	0	1.9371950002387168	NA	BMI	001	2026-03-13_13h41.14.891	MR	2023.1.0	59.98598727840456	NA
mr_images/6_b.png	mr_images/6_b_z_90.png	left	cw	90	NA	NA	NA	NA	0	92	92	161	380.75080460030586	NA	NA	NA	NA	381.30077160010114	381.30077160010114	right	0	1.962955600116402	NA	BMI	001	2026-03-13_13h41.14.891	MR	2023.1.0	59.98598727840456	NA
mr_images/4_a.png	mr_images/4_b_z_225.png	right	ccw	135	NA	NA	NA	NA	0	93	93	106	383.284061500337	NA	NA	NA	NA	383.8171228999272	383.8171228999272	left	0	1.8181322999298573	NA	BMI	001	2026-03-13_13h41.14.891	MR	2023.1.0	59.98598727840456	NA
mr_images/3_a.png	mr_images/3_a_z_135.png	left	cw	135	NA	NA	NA	NA	0	94	94	81	385.66719380021095	NA	NA	NA	NA	386.2001406000927	386.2001406000927	right	0	2.1793251005001366	NA	BMI	001	2026-03-13_13h41.14.891	MR	2023.1.0	59.98598727840456	NA
mr_images/3_a.png	mr_images/3_b_z_45.png	right	cw	45	NA	NA	NA	NA	0	95	95	72	388.3998382999562	NA	NA	NA	NA	388.9330670000054	388.9330670000054	left	0	4.561952400021255	NA	BMI	001	2026-03-13_13h41.14.891	MR	2023.1.0	59.98598727840456	NA
mr_images/12_a.png	mr_images/12_a_z_45.png	left	cw	45	NA	NA	NA	NA	0	96	96	49	393.51581089990214	NA	NA	NA	NA	394.0823162002489	394.0823162002489	right	0	1.8540959004312751	NA	BMI	001	2026-03-13_13h41.14.891	MR	2023.1.0	59.98598727840456	NA
mr_images/11_a.png	mr_images/11_b_z_135.png	right	cw	135	NA	NA	NA	NA	0	97	97	32	395.96557020023465	NA	NA	NA	NA	396.5152727002278	396.5152727002278	None	0	NA	NA	BMI	001	2026-03-13_13h41.14.891	MR	2023.1.0	59.98598727840456	NA
mr_images/9_b.png	mr_images/9_b_z_90.png	left	cw	90	NA	NA	NA	NA	0	98	98	209	401.4813802000135	NA	NA	NA	NA	NA	402.0312060001306	right	0	3.016126800328493	NA	BMI	001	2026-03-13_13h41.14.891	MR	2023.1.0	59.98598727840456	NA
mr_images/1_a.png	mr_images/1_a_z_45.png	left	cw	45	NA	NA	NA	NA	0	99	99	1	405.06415450014174	NA	NA	NA	NA	405.6138880001381	405.6138880001381	right	0	2.0720685003325343	NA	BMI	001	2026-03-13_13h41.14.891	MR	2023.1.0	59.98598727840456	NA
mr_images/5_b.png	mr_images/5_b_z_135.png	left	cw	135	NA	NA	NA	NA	0	100	100	141	407.71377380006015	NA	NA	NA	NA	408.24867550004274	408.24867550004274	right	0	2.800162000115961	NA	BMI	001	2026-03-13_13h41.14.891	MR	2023.1.0	59.98598727840456	NA
mr_images/6_b.png	mr_images/6_a_z_45.png	right	cw	45	NA	NA	NA	NA	0	101	101	156	411.0799695001915	NA	NA	NA	NA	411.6297909002751	411.6297909002751	left	0	2.0732713998295367	NA	BMI	001	2026-03-13_13h41.14.891	MR	2023.1.0	59.98598727840456	NA
mr_images/3_b.png	mr_images/3_b_z_270.png	left	ccw	90	NA	NA	NA	NA	0	102	102	91	413.7297745998949	NA	NA	NA	NA	414.2997345002368	414.2997345002368	right	0	1.971474400255829	NA	BMI	001	2026-03-13_13h41.14.891	MR	2023.1.0	59.98598727840456	NA
mr_images/11_b.png	mr_images/11_b_z_315.png	left	ccw	45	NA	NA	NA	NA	0	103	103	39	416.30025020008907	NA	NA	NA	NA	416.82906399993226	416.82906399993226	right	0	2.539807300083339	NA	BMI	001	2026-03-13_13h41.14.891	MR	2023.1.0	59.98598727840456	NA
mr_images/1_a.png	mr_images/1_a_z_135.png	left	cw	135	NA	NA	NA	NA	0	104	104	9	419.3956146002747	NA	NA	NA	NA	419.9287279001437	419.9287279001437	right	0	1.920425800140947	NA	BMI	001	2026-03-13_13h41.14.891	MR	2023.1.0	59.98598727840456	NA
mr_images/11_b.png	mr_images/11_a_z_315.png	right	ccw	45	NA	NA	NA	NA	0	105	105	38	421.8786841998808	NA	NA	NA	NA	422.4283369001933	422.4283369001933	left	0	1.273953900206834	NA	BMI	001	2026-03-13_13h41.14.891	MR	2023.1.0	59.98598727840456	NA
mr_images/12_a.png	mr_images/12_a_z_225.png	left	ccw	135	NA	NA	NA	NA	0	106	106	59	423.72821169998497	NA	NA	NA	NA	424.2949614999816	424.2949614999816	right	0	2.812185499817133	NA	BMI	001	2026-03-13_13h41.14.891	MR	2023.1.0	59.98598727840456	NA
mr_images/11_a.png	mr_images/11_a_z_45.png	left	cw	45	NA	NA	NA	NA	0	107	107	25	427.12769109988585	NA	NA	NA	NA	427.6680936999619	427.6680936999619	right	0	1.9413375998847189	NA	BMI	001	2026-03-13_13h41.14.891	MR	2023.1.0	59.98598727840456	NA
mr_images/7_a.png	mr_images/7_a_z_315.png	left	ccw	45	NA	NA	NA	NA	0	108	108	171	429.6317463000305	NA	NA	NA	NA	430.17702089995146	430.17702089995146	right	0	2.691854199860245	NA	BMI	001	2026-03-13_13h41.14.891	MR	2023.1.0	59.98598727840456	NA
mr_images/7_a.png	mr_images/7_b_z_315.png	right	ccw	45	NA	NA	NA	NA	0	109	109	170	432.89373779995367	NA	NA	NA	NA	433.44351690029725	433.44351690029725	left	0	1.4710633005015552	NA	BMI	001	2026-03-13_13h41.14.891	MR	2023.1.0	59.98598727840456	NA
mr_images/7_a.png	mr_images/7_a_z_225.png	left	ccw	135	NA	NA	NA	NA	0	110	110	179	434.94337690016255	NA	NA	NA	NA	435.4952755002305	435.4952755002305	right	0	1.6006196001544597	NA	BMI	001	2026-03-13_13h41.14.891	MR	2023.1.0	59.98598727840456	NA
mr_images/5_a.png	mr_images/5_a_z_270.png	left	ccw	90	NA	NA	NA	NA	0	111	111	127	437.11398020014167	NA	NA	NA	NA	437.6598133002408	437.6598133002408	right	0	3.168680400121957	NA	BMI	001	2026-03-13_13h41.14.891	MR	2023.1.0	59.98598727840456	NA
mr_images/6_a.png	mr_images/6_a_z_315.png	left	ccw	45	NA	NA	NA	NA	0	112	112	147	440.8591696000658	NA	NA	NA	NA	441.3754910998978	441.3754910998978	right	0	3.0182504998520017	NA	BMI	001	2026-03-13_13h41.14.891	MR	2023.1.0	59.98598727840456	NA
mr_images/9_b.png	mr_images/9_b_z_270.png	left	ccw	90	NA	NA	NA	NA	0	113	113	211	444.4252522001043	NA	NA	NA	NA	444.94420560030267	444.94420560030267	right	0	2.9928315998986363	NA	BMI	001	2026-03-13_13h41.14.891	MR	2023.1.0	59.98598727840456	NA
mr_images/9_a.png	mr_images/9_a_z_225.png	left	ccw	135	NA	NA	NA	NA	0	114	114	203	447.9624279001728	NA	NA	NA	NA	448.49210590031	448.49210590031	right	0	2.532589300069958	NA	BMI	001	2026-03-13_13h41.14.891	MR	2023.1.0	59.98598727840456	NA
mr_images/7_b.png	mr_images/7_b_z_45.png	left	cw	45	NA	NA	NA	NA	0	115	115	181	451.0413363003172	NA	NA	NA	NA	451.5926509001292	451.5926509001292	right	0	3.2982455999590456	NA	BMI	001	2026-03-13_13h41.14.891	MR	2023.1.0	59.98598727840456	NA
mr_images/1_a.png	mr_images/1_b_z_135.png	right	cw	135	NA	NA	NA	NA	0	116	116	8	454.9073123000562	NA	NA	NA	NA	455.4570456999354	455.4570456999354	left	0	1.5421776003204286	NA	BMI	001	2026-03-13_13h41.14.891	MR	2023.1.0	59.98598727840456	NA
mr_images/5_a.png	mr_images/5_b_z_45.png	right	cw	45	NA	NA	NA	NA	0	117	117	120	457.02365570003167	NA	NA	NA	NA	457.57364100031555	457.57364100031555	left	0	2.1077139005064964	NA	BMI	001	2026-03-13_13h41.14.891	MR	2023.1.0	59.98598727840456	NA
mr_images/1_b.png	mr_images/1_b_z_225.png	left	ccw	135	NA	NA	NA	NA	0	118	118	23	459.7065646001138	NA	NA	NA	NA	460.2566208001226	460.2566208001226	right	0	2.0658049997873604	NA	BMI	001	2026-03-13_13h41.14.891	MR	2023.1.0	59.98598727840456	NA
mr_images/1_b.png	mr_images/1_b_z_135.png	left	cw	135	NA	NA	NA	NA	0	119	119	21	462.3395269000903	NA	NA	NA	NA	462.8726993002929	462.8726993002929	right	0	1.809690599795431	NA	BMI	001	2026-03-13_13h41.14.891	MR	2023.1.0	59.98598727840456	NA
mr_images/11_b.png	mr_images/11_b_z_45.png	left	cw	45	NA	NA	NA	NA	0	120	120	37	464.7057147002779	NA	NA	NA	NA	465.2390999002382	465.2390999002382	right	0	2.988272299990058	NA	BMI	001	2026-03-13_13h41.14.891	MR	2023.1.0	59.98598727840456	NA
mr_images/1_b.png	mr_images/1_a_z_45.png	right	cw	45	NA	NA	NA	NA	0	121	121	12	468.2554489001632	NA	NA	NA	NA	468.78865780029446	468.78865780029446	left	0	2.1841971003450453	NA	BMI	001	2026-03-13_13h41.14.891	MR	2023.1.0	59.98598727840456	NA
mr_images/5_b.png	mr_images/5_a_z_225.png	right	ccw	135	NA	NA	NA	NA	0	122	122	142	471.00499689998105	NA	NA	NA	NA	471.55922019993886	471.55922019993886	left	0	1.614118999801576	NA	BMI	001	2026-03-13_13h41.14.891	MR	2023.1.0	59.98598727840456	NA
mr_images/6_a.png	mr_images/6_a_z_90.png	left	cw	90	NA	NA	NA	NA	0	123	123	149	473.192263700068	NA	NA	NA	NA	473.7375129000284	473.7375129000284	right	0	2.1637416002340615	NA	BMI	001	2026-03-13_13h41.14.891	MR	2023.1.0	59.98598727840456	NA
mr_images/4_b.png	mr_images/4_b_z_315.png	left	ccw	45	NA	NA	NA	NA	0	124	124	111	475.9210034999997	NA	NA	NA	NA	476.4542622002773	476.4542622002773	right	0	2.413404400460422	NA	BMI	001	2026-03-13_13h41.14.891	MR	2023.1.0	59.98598727840456	NA
mr_images/3_a.png	mr_images/3_b_z_90.png	right	cw	90	NA	NA	NA	NA	0	125	125	76	478.887585000135	NA	NA	NA	NA	479.43715790007263	479.43715790007263	left	0	2.2964320997707546	NA	BMI	001	2026-03-13_13h41.14.891	MR	2023.1.0	59.98598727840456	NA
mr_images/3_a.png	mr_images/3_a_z_90.png	left	cw	90	NA	NA	NA	NA	0	126	126	77	481.7534876000136	NA	NA	NA	NA	482.2870108000934	482.2870108000934	right	0	2.188156899996102	NA	BMI	001	2026-03-13_13h41.14.891	MR	2023.1.0	59.98598727840456	NA
mr_images/7_b.png	mr_images/7_a_z_225.png	right	ccw	135	NA	NA	NA	NA	0	127	127	190	484.50347610004246	NA	NA	NA	NA	485.03637350024655	485.03637350024655	left	0	2.8847508002072573	NA	BMI	001	2026-03-13_13h41.14.891	MR	2023.1.0	59.98598727840456	NA
mr_images/3_b.png	mr_images/3_b_z_135.png	left	cw	135	NA	NA	NA	NA	0	128	128	93	487.9546791999601	NA	NA	NA	NA	NA	488.5027083000168	right	0	1.26282689999789	NA	BMI	001	2026-03-13_13h41.14.891	MR	2023.1.0	59.98598727840456	NA
mr_images/4_b.png	mr_images/4_a_z_270.png	right	ccw	90	NA	NA	NA	NA	0	129	129	114	489.7858792003244	NA	NA	NA	NA	490.31916600000113	490.31916600000113	left	0	1.7372014001011848	NA	BMI	001	2026-03-13_13h41.14.891	MR	2023.1.0	59.98598727840456	NA
mr_images/7_b.png	mr_images/7_b_z_225.png	left	ccw	135	NA	NA	NA	NA	0	130	130	191	492.0853806999512	NA	NA	NA	NA	492.6186118000187	492.6186118000187	right	0	1.4599329000338912	NA	BMI	001	2026-03-13_13h41.14.891	MR	2023.1.0	59.98598727840456	NA
mr_images/3_a.png	mr_images/3_b_z_270.png	right	ccw	90	NA	NA	NA	NA	0	131	131	78	494.10191019997	NA	NA	NA	NA	494.6193111999892	494.6193111999892	left	0	2.118761499878019	NA	BMI	001	2026-03-13_13h41.14.891	MR	2023.1.0	59.98598727840456	NA
mr_images/7_a.png	mr_images/7_b_z_45.png	right	cw	45	NA	NA	NA	NA	0	132	132	168	496.7684908001684	NA	NA	NA	NA	497.301270800177	497.301270800177	right	1	2.720373600255698	NA	BMI	001	2026-03-13_13h41.14.891	MR	2023.1.0	59.98598727840456	NA
mr_images/11_b.png	mr_images/11_a_z_90.png	right	cw	90	NA	NA	NA	NA	0	133	133	40	500.0509693999775	NA	NA	NA	NA	500.5853272001259	500.5853272001259	left	0	3.3238758998923004	NA	BMI	001	2026-03-13_13h41.14.891	MR	2023.1.0	59.98598727840456	NA
mr_images/4_a.png	mr_images/4_a_z_135.png	left	cw	135	NA	NA	NA	NA	0	134	134	105	503.93378650024533	NA	NA	NA	NA	504.50038440013304	504.50038440013304	right	0	1.9673143001273272	NA	BMI	001	2026-03-13_13h41.14.891	MR	2023.1.0	59.98598727840456	NA
mr_images/12_b.png	mr_images/12_a_z_270.png	right	ccw	90	NA	NA	NA	NA	0	135	135	66	506.5001912000589	NA	NA	NA	NA	507.0335150999017	507.0335150999017	left	0	2.878256400115788	NA	BMI	001	2026-03-13_13h41.14.891	MR	2023.1.0	59.98598727840456	NA
mr_images/9_a.png	mr_images/9_b_z_270.png	right	ccw	90	NA	NA	NA	NA	0	136	136	198	509.93290570005774	NA	NA	NA	NA	510.46617900021374	510.46617900021374	left	0	2.002316599711776	NA	BMI	001	2026-03-13_13h41.14.891	MR	2023.1.0	59.98598727840456	NA
mr_images/9_a.png	mr_images/9_b_z_90.png	right	cw	90	NA	NA	NA	NA	0	137	137	196	512.4993068999611	NA	NA	NA	NA	513.0328135001473	513.0328135001473	left	0	1.7058357000350952	NA	BMI	001	2026-03-13_13h41.14.891	MR	2023.1.0	59.98598727840456	NA
mr_images/12_b.png	mr_images/12_b_z_45.png	left	cw	45	NA	NA	NA	NA	0	138	138	61	514.7654933999293	NA	NA	NA	NA	515.2988919001073	515.2988919001073	right	0	1.989715900272131	NA	BMI	001	2026-03-13_13h41.14.891	MR	2023.1.0	59.98598727840456	NA
mr_images/5_b.png	mr_images/5_b_z_225.png	left	ccw	135	NA	NA	NA	NA	0	139	139	143	517.3153472999111	NA	NA	NA	NA	517.8487635999918	517.8487635999918	right	0	2.1288173999637365	NA	BMI	001	2026-03-13_13h41.14.891	MR	2023.1.0	59.98598727840456	NA
mr_images/12_b.png	mr_images/12_b_z_225.png	left	ccw	135	NA	NA	NA	NA	0	140	140	71	519.9982102001086	NA	NA	NA	NA	520.5372673999518	520.5372673999518	right	0	1.692668200004846	NA	BMI	001	2026-03-13_13h41.14.891	MR	2023.1.0	59.98598727840456	NA
mr_images/5_a.png	mr_images/5_b_z_90.png	right	cw	90	NA	NA	NA	NA	0	141	141	124	522.2520980001427	NA	NA	NA	NA	522.8012131000869	522.8012131000869	left	0	1.5695917000994086	NA	BMI	001	2026-03-13_13h41.14.891	MR	2023.1.0	59.98598727840456	NA
mr_images/6_a.png	mr_images/6_b_z_135.png	right	cw	135	NA	NA	NA	NA	0	142	142	152	524.4018288003281	NA	NA	NA	NA	524.9479109002277	524.9479109002277	left	0	3.810375800356269	NA	BMI	001	2026-03-13_13h41.14.891	MR	2023.1.0	59.98598727840456	NA
mr_images/6_a.png	mr_images/6_b_z_315.png	right	ccw	45	NA	NA	NA	NA	0	143	143	146	528.7807243000716	NA	NA	NA	NA	529.3301933002658	529.3301933002658	left	0	1.586095499806106	NA	BMI	001	2026-03-13_13h41.14.891	MR	2023.1.0	59.98598727840456	NA
mr_images/5_b.png	mr_images/5_a_z_90.png	right	cw	90	NA	NA	NA	NA	0	144	144	136	530.9465846000239	NA	NA	NA	NA	531.4855284001678	531.4855284001678	left	0	2.231091999914497	NA	BMI	001	2026-03-13_13h41.14.891	MR	2023.1.0	59.98598727840456	NA
mr_images/7_b.png	mr_images/7_b_z_315.png	left	ccw	45	NA	NA	NA	NA	0	145	145	183	533.7338939001784	NA	NA	NA	NA	534.2520135003142	534.2520135003142	right	0	1.0799205000512302	NA	BMI	001	2026-03-13_13h41.14.891	MR	2023.1.0	59.98598727840456	NA
mr_images/7_a.png	mr_images/7_a_z_270.png	left	ccw	90	NA	NA	NA	NA	0	146	146	175	535.3503562002443	NA	NA	NA	NA	535.8960116002709	535.8960116002709	right	0	1.6299330000765622	NA	BMI	001	2026-03-13_13h41.14.891	MR	2023.1.0	59.98598727840456	NA
mr_images/6_b.png	mr_images/6_a_z_90.png	right	cw	90	NA	NA	NA	NA	0	147	147	160	537.5459578000009	NA	NA	NA	NA	538.0788775002584	538.0788775002584	left	0	2.06045199977234	NA	BMI	001	2026-03-13_13h41.14.891	MR	2023.1.0	59.98598727840456	NA
mr_images/9_b.png	mr_images/9_a_z_135.png	right	cw	135	NA	NA	NA	NA	0	148	148	212	540.1621138001792	NA	NA	NA	NA	540.712025300134	540.712025300134	left	0	2.3896467997692525	NA	BMI	001	2026-03-13_13h41.14.891	MR	2023.1.0	59.98598727840456	NA
mr_images/4_b.png	mr_images/4_a_z_45.png	right	cw	45	NA	NA	NA	NA	0	149	149	108	543.1283611999825	NA	NA	NA	NA	543.6663866001181	543.6663866001181	left	0	2.10034570004791	NA	BMI	001	2026-03-13_13h41.14.891	MR	2023.1.0	59.98598727840456	NA
mr_images/11_a.png	mr_images/11_a_z_135.png	left	cw	135	NA	NA	NA	NA	0	150	150	33	545.7822500001639	NA	NA	NA	NA	546.3341776002198	546.3341776002198	right	0	1.9190958002582192	NA	BMI	001	2026-03-13_13h41.14.891	MR	2023.1.0	59.98598727840456	NA
mr_images/11_a.png	mr_images/11_b_z_90.png	right	cw	90	NA	NA	NA	NA	0	151	151	28	548.2818304002285	NA	NA	NA	NA	548.8440739000216	548.8440739000216	left	0	3.4262942001223564	NA	BMI	001	2026-03-13_13h41.14.891	MR	2023.1.0	59.98598727840456	NA
mr_images/7_b.png	mr_images/7_a_z_270.png	right	ccw	90	NA	NA	NA	NA	0	152	152	186	552.2936455002055	NA	NA	NA	NA	552.8100172001868	552.8100172001868	left	0	1.1983754998072982	NA	BMI	001	2026-03-13_13h41.14.891	MR	2023.1.0	59.98598727840456	NA
mr_images/7_b.png	mr_images/7_a_z_90.png	right	cw	90	NA	NA	NA	NA	0	153	153	184	554.0268592000939	NA	NA	NA	NA	554.560031699948	554.560031699948	left	0	2.132333599962294	NA	BMI	001	2026-03-13_13h41.14.891	MR	2023.1.0	59.98598727840456	NA
mr_images/11_a.png	mr_images/11_b_z_270.png	right	ccw	90	NA	NA	NA	NA	0	154	154	30	556.7101301001385	NA	NA	NA	NA	557.2317071999423	557.2317071999423	left	0	2.1263300999999046	NA	BMI	001	2026-03-13_13h41.14.891	MR	2023.1.0	59.98598727840456	NA
mr_images/12_b.png	mr_images/12_a_z_45.png	right	cw	45	NA	NA	NA	NA	0	155	155	60	559.3803385999054	NA	NA	NA	NA	559.9104488999583	559.9104488999583	left	0	1.9284497001208365	NA	BMI	001	2026-03-13_13h41.14.891	MR	2023.1.0	59.98598727840456	NA
mr_images/11_b.png	mr_images/11_b_z_135.png	left	cw	135	NA	NA	NA	NA	0	156	156	45	561.8590489001945	NA	NA	NA	NA	562.3922025002539	562.3922025002539	right	0	2.401404400356114	NA	BMI	001	2026-03-13_13h41.14.891	MR	2023.1.0	59.98598727840456	NA
mr_images/6_a.png	mr_images/6_a_z_45.png	left	cw	45	NA	NA	NA	NA	0	157	157	145	564.8252953998744	NA	NA	NA	NA	565.3585443003103	565.3585443003103	right	0	2.2787067000754178	NA	BMI	001	2026-03-13_13h41.14.891	MR	2023.1.0	59.98598727840456	NA
mr_images/9_a.png	mr_images/9_a_z_135.png	left	cw	135	NA	NA	NA	NA	0	158	158	201	567.6583043001592	NA	NA	NA	NA	568.1915894001722	568.1915894001722	right	0	1.882816799916327	NA	BMI	001	2026-03-13_13h41.14.891	MR	2023.1.0	59.98598727840456	NA
mr_images/12_b.png	mr_images/12_b_z_270.png	left	ccw	90	NA	NA	NA	NA	0	159	159	67	570.091262599919	NA	NA	NA	NA	570.6243257001042	570.6243257001042	right	0	2.790474799927324	NA	BMI	001	2026-03-13_13h41.14.891	MR	2023.1.0	59.98598727840456	NA
mr_images/7_b.png	mr_images/7_b_z_270.png	left	ccw	90	NA	NA	NA	NA	0	160	160	187	573.4407546003349	NA	NA	NA	NA	573.9905218002386	573.9905218002386	right	0	2.4325724001973867	NA	BMI	001	2026-03-13_13h41.14.891	MR	2023.1.0	59.98598727840456	NA
mr_images/12_b.png	mr_images/12_a_z_315.png	right	ccw	45	NA	NA	NA	NA	0	161	161	62	576.4404092999175	NA	NA	NA	NA	576.9754770998843	576.9754770998843	left	0	1.2371982000768185	NA	BMI	001	2026-03-13_13h41.14.891	MR	2023.1.0	59.98598727840456	NA
mr_images/1_b.png	mr_images/1_a_z_315.png	right	ccw	45	NA	NA	NA	NA	0	162	162	14	578.2443657000549	NA	NA	NA	NA	578.7900538002141	578.7900538002141	left	0	1.3647962003014982	NA	BMI	001	2026-03-13_13h41.14.891	MR	2023.1.0	59.98598727840456	NA
mr_images/11_b.png	mr_images/11_b_z_90.png	left	cw	90	NA	NA	NA	NA	0	163	163	41	580.1733324001543	NA	NA	NA	NA	580.7074258001521	580.7074258001521	right	0	1.7102061002515256	NA	BMI	001	2026-03-13_13h41.14.891	MR	2023.1.0	59.98598727840456	NA
mr_images/6_a.png	mr_images/6_b_z_270.png	right	ccw	90	NA	NA	NA	NA	0	164	164	150	582.4395942999981	NA	NA	NA	NA	583.0064055002294	583.0064055002294	left	0	1.6120830001309514	NA	BMI	001	2026-03-13_13h41.14.891	MR	2023.1.0	59.98598727840456	NA
mr_images/1_b.png	mr_images/1_a_z_225.png	right	ccw	135	NA	NA	NA	NA	0	165	165	22	584.6393964001909	NA	NA	NA	NA	585.1723732003011	585.1723732003011	left	0	1.7186257001012564	NA	BMI	001	2026-03-13_13h41.14.891	MR	2023.1.0	59.98598727840456	NA
mr_images/6_a.png	mr_images/6_a_z_135.png	left	cw	135	NA	NA	NA	NA	0	166	166	153	586.9222813001834	NA	NA	NA	NA	587.472074100282	587.472074100282	right	0	1.565614300314337	NA	BMI	001	2026-03-13_13h41.14.891	MR	2023.1.0	59.98598727840456	NA
mr_images/5_a.png	mr_images/5_a_z_315.png	left	ccw	45	NA	NA	NA	NA	0	167	167	123	589.055434900336	NA	NA	NA	NA	589.6049013002776	589.6049013002776	right	0	1.13893480040133	NA	BMI	001	2026-03-13_13h41.14.891	MR	2023.1.0	59.98598727840456	NA
mr_images/6_b.png	mr_images/6_b_z_270.png	left	ccw	90	NA	NA	NA	NA	0	168	168	163	590.7716490998864	NA	NA	NA	NA	591.3064113999717	591.3064113999717	left	1	1.0769036002457142	NA	BMI	001	2026-03-13_13h41.14.891	MR	2023.1.0	59.98598727840456	NA
mr_images/7_a.png	mr_images/7_b_z_135.png	right	cw	135	NA	NA	NA	NA	0	169	169	176	592.4047181000933	NA	NA	NA	NA	592.9412563000806	592.9412563000806	left	0	1.4445990002714095	NA	BMI	001	2026-03-13_13h41.14.891	MR	2023.1.0	59.98598727840456	NA
mr_images/7_b.png	mr_images/7_a_z_315.png	right	ccw	45	NA	NA	NA	NA	0	170	170	182	594.4088631002232	NA	NA	NA	NA	594.9376921001822	594.9376921001822	left	0	1.471792200114578	NA	BMI	001	2026-03-13_13h41.14.891	MR	2023.1.0	59.98598727840456	NA
mr_images/4_b.png	mr_images/4_a_z_315.png	right	ccw	45	NA	NA	NA	NA	0	171	171	110	596.4376391000114	NA	NA	NA	NA	596.970844599884	596.970844599884	left	0	1.0286197001114488	NA	BMI	001	2026-03-13_13h41.14.891	MR	2023.1.0	59.98598727840456	NA
mr_images/4_b.png	mr_images/4_b_z_45.png	left	cw	45	NA	NA	NA	NA	0	172	172	109	598.0209499001503	NA	NA	NA	NA	598.5547386002727	598.5547386002727	right	0	1.247957400046289	NA	BMI	001	2026-03-13_13h41.14.891	MR	2023.1.0	59.98598727840456	NA
mr_images/12_a.png	mr_images/12_a_z_90.png	left	cw	90	NA	NA	NA	NA	0	173	173	53	599.8205780000426	NA	NA	NA	NA	600.3725828002207	600.3725828002207	right	0	1.950150900054723	NA	BMI	001	2026-03-13_13h41.14.891	MR	2023.1.0	59.98598727840456	NA
mr_images/11_a.png	mr_images/11_a_z_315.png	left	ccw	45	NA	NA	NA	NA	0	174	174	27	602.3410833002999	NA	NA	NA	NA	602.8719554999843	602.8719554999843	right	0	1.5761767998337746	NA	BMI	001	2026-03-13_13h41.14.891	MR	2023.1.0	59.98598727840456	NA
mr_images/12_a.png	mr_images/12_b_z_225.png	right	ccw	135	NA	NA	NA	NA	0	175	175	58	604.4740617000498	NA	NA	NA	NA	605.0088794999756	605.0088794999756	left	0	2.302162100095302	NA	BMI	001	2026-03-13_13h41.14.891	MR	2023.1.0	59.98598727840456	NA
mr_images/5_b.png	mr_images/5_a_z_135.png	right	cw	135	NA	NA	NA	NA	0	176	176	140	607.340576000046	NA	NA	NA	NA	607.8713842001744	607.8713842001744	left	0	2.3309547998942435	NA	BMI	001	2026-03-13_13h41.14.891	MR	2023.1.0	59.98598727840456	NA
mr_images/9_b.png	mr_images/9_b_z_135.png	left	cw	135	NA	NA	NA	NA	0	177	177	213	610.2233246001415	NA	NA	NA	NA	610.7859241003171	610.7859241003171	left	1	2.5419135000556707	NA	BMI	001	2026-03-13_13h41.14.891	MR	2023.1.0	59.98598727840456	NA
mr_images/5_b.png	mr_images/5_a_z_45.png	right	cw	45	NA	NA	NA	NA	0	178	178	132	613.3522979998961	NA	NA	NA	NA	613.9185208999552	613.9185208999552	left	0	1.8471476999111471	NA	BMI	001	2026-03-13_13h41.14.891	MR	2023.1.0	59.98598727840456	NA
mr_images/9_a.png	mr_images/9_b_z_135.png	right	cw	135	NA	NA	NA	NA	0	179	179	200	615.7849000003189	NA	NA	NA	NA	616.318409900181	616.318409900181	left	0	2.32249560020864	NA	BMI	001	2026-03-13_13h41.14.891	MR	2023.1.0	59.98598727840456	NA
mr_images/3_a.png	mr_images/3_b_z_135.png	right	cw	135	NA	NA	NA	NA	0	180	180	80	618.6679527000524	NA	NA	NA	NA	619.2010790999047	619.2010790999047	left	0	2.1749844001606107	NA	BMI	001	2026-03-13_13h41.14.891	MR	2023.1.0	59.98598727840456	NA
mr_images/3_a.png	mr_images/3_a_z_270.png	left	ccw	90	NA	NA	NA	NA	0	181	181	79	621.4008619002998	NA	NA	NA	NA	621.9339268999174	621.9339268999174	right	0	1.3687281999737024	NA	BMI	001	2026-03-13_13h41.14.891	MR	2023.1.0	59.98598727840456	NA
mr_images/4_b.png	mr_images/4_a_z_135.png	right	cw	135	NA	NA	NA	NA	0	182	182	116	623.3340857001022	NA	NA	NA	NA	623.8672056999058	623.8672056999058	right	1	1.4148420998826623	NA	BMI	001	2026-03-13_13h41.14.891	MR	2023.1.0	59.98598727840456	NA
mr_images/9_a.png	mr_images/9_a_z_315.png	left	ccw	45	NA	NA	NA	NA	0	183	183	195	625.3002627999522	NA	NA	NA	NA	625.8335118000396	625.8335118000396	right	0	1.8830258999951184	NA	BMI	001	2026-03-13_13h41.14.891	MR	2023.1.0	59.98598727840456	NA
mr_images/6_b.png	mr_images/6_b_z_225.png	left	ccw	135	NA	NA	NA	NA	0	184	184	167	627.7332643000409	NA	NA	NA	NA	628.2664796002209	628.2664796002209	right	0	1.8005090998485684	NA	BMI	001	2026-03-13_13h41.14.891	MR	2023.1.0	59.98598727840456	NA
mr_images/4_a.png	mr_images/4_b_z_270.png	right	ccw	90	NA	NA	NA	NA	0	185	185	102	630.0996579001658	NA	NA	NA	NA	630.6332469000481	630.6332469000481	left	0	1.7617707001045346	NA	BMI	001	2026-03-13_13h41.14.891	MR	2023.1.0	59.98598727840456	NA
mr_images/1_b.png	mr_images/1_b_z_315.png	left	ccw	45	NA	NA	NA	NA	0	186	186	15	632.41594000021	NA	NA	NA	NA	632.9656881000847	632.9656881000847	right	0	1.4984232001006603	NA	BMI	001	2026-03-13_13h41.14.891	MR	2023.1.0	59.98598727840456	NA
mr_images/5_b.png	mr_images/5_b_z_45.png	left	cw	45	NA	NA	NA	NA	0	187	187	133	634.4823249001056	NA	NA	NA	NA	635.0155716002919	635.0155716002919	right	0	2.4770937003195286	NA	BMI	001	2026-03-13_13h41.14.891	MR	2023.1.0	59.98598727840456	NA
mr_images/3_a.png	mr_images/3_a_z_45.png	left	cw	45	NA	NA	NA	NA	0	188	188	73	637.5151492003351	NA	NA	NA	NA	638.0696187000722	638.0696187000722	right	0	1.4861380001530051	NA	BMI	001	2026-03-13_13h41.14.891	MR	2023.1.0	59.98598727840456	NA
mr_images/5_b.png	mr_images/5_b_z_315.png	left	ccw	45	NA	NA	NA	NA	0	189	189	135	639.5858571003191	NA	NA	NA	NA	640.1315362001769	640.1315362001769	right	0	1.8217745004221797	NA	BMI	001	2026-03-13_13h41.14.891	MR	2023.1.0	59.98598727840456	NA
mr_images/5_a.png	mr_images/5_a_z_45.png	left	cw	45	NA	NA	NA	NA	0	190	190	121	641.9814532003365	NA	NA	NA	NA	642.5145610002801	642.5145610002801	right	0	1.8310774001292884	NA	BMI	001	2026-03-13_13h41.14.891	MR	2023.1.0	59.98598727840456	NA
mr_images/11_b.png	mr_images/11_a_z_270.png	right	ccw	90	NA	NA	NA	NA	0	191	191	42	644.3643879001029	NA	NA	NA	NA	644.8975351001136	644.8975351001136	left	0	2.024683500174433	NA	BMI	001	2026-03-13_13h41.14.891	MR	2023.1.0	59.98598727840456	NA
mr_images/12_b.png	mr_images/12_a_z_225.png	right	ccw	135	NA	NA	NA	NA	0	192	192	70	646.947509100195	NA	NA	NA	NA	647.4819718003273	647.4819718003273	left	0	1.5768477004021406	NA	BMI	001	2026-03-13_13h41.14.891	MR	2023.1.0	59.98598727840456	NA
mr_images/6_b.png	mr_images/6_a_z_225.png	right	ccw	135	NA	NA	NA	NA	0	193	193	166	649.0802270001732	NA	NA	NA	NA	649.6134391003288	649.6134391003288	left	0	2.7599941003136337	NA	BMI	001	2026-03-13_13h41.14.891	MR	2023.1.0	59.98598727840456	NA
mr_images/1_a.png	mr_images/1_b_z_225.png	right	ccw	135	NA	NA	NA	NA	0	194	194	10	652.3965417002328	NA	NA	NA	NA	652.9296543002129	652.9296543002129	left	0	2.3026128001511097	NA	BMI	001	2026-03-13_13h41.14.891	MR	2023.1.0	59.98598727840456	NA
mr_images/1_a.png	mr_images/1_b_z_315.png	right	ccw	45	NA	NA	NA	NA	0	195	195	2	655.2627913001925	NA	NA	NA	NA	655.7959606000222	655.7959606000222	left	0	1.292149200104177	NA	BMI	001	2026-03-13_13h41.14.891	MR	2023.1.0	59.98598727840456	NA
mr_images/3_a.png	mr_images/3_b_z_225.png	right	ccw	135	NA	NA	NA	NA	0	196	196	82	657.1124538001604	NA	NA	NA	NA	657.6625338001177	657.6625338001177	left	0	2.3424245002679527	NA	BMI	001	2026-03-13_13h41.14.891	MR	2023.1.0	59.98598727840456	NA
mr_images/3_b.png	mr_images/3_a_z_45.png	right	cw	45	NA	NA	NA	NA	0	197	197	84	660.0288877002895	NA	NA	NA	NA	660.561957700178	660.561957700178	left	0	2.4156205002218485	NA	BMI	001	2026-03-13_13h41.14.891	MR	2023.1.0	59.98598727840456	NA
mr_images/7_a.png	mr_images/7_b_z_270.png	right	ccw	90	NA	NA	NA	NA	0	198	198	174	662.9951051999815	NA	NA	NA	NA	663.5140738002956	663.5140738002956	left	0	2.347708800341934	NA	BMI	001	2026-03-13_13h41.14.891	MR	2023.1.0	59.98598727840456	NA
mr_images/1_b.png	mr_images/1_a_z_90.png	right	cw	90	NA	NA	NA	NA	0	199	199	16	665.8821975002065	NA	NA	NA	NA	666.4111791001633	666.4111791001633	left	0	3.4596439003944397	NA	BMI	001	2026-03-13_13h41.14.891	MR	2023.1.0	59.98598727840456	NA
mr_images/5_a.png	mr_images/5_a_z_225.png	left	ccw	135	NA	NA	NA	NA	0	200	200	131	669.8939879001118	NA	NA	NA	NA	670.4273731000721	670.4273731000721	right	0	2.249075199943036	NA	BMI	001	2026-03-13_13h41.14.891	MR	2023.1.0	59.98598727840456	NA
mr_images/9_a.png	mr_images/9_b_z_225.png	right	ccw	135	NA	NA	NA	NA	0	201	201	202	672.6942094000988	NA	NA	NA	NA	673.2267978000455	673.2267978000455	left	0	2.007420000154525	NA	BMI	001	2026-03-13_13h41.14.891	MR	2023.1.0	59.98598727840456	NA
mr_images/7_a.png	mr_images/7_a_z_45.png	left	cw	45	NA	NA	NA	NA	0	202	202	169	675.2602301998995	NA	NA	NA	NA	675.8099116999656	675.8099116999656	right	0	1.6547754001803696	NA	BMI	001	2026-03-13_13h41.14.891	MR	2023.1.0	59.98598727840456	NA
mr_images/12_b.png	mr_images/12_a_z_135.png	right	cw	135	NA	NA	NA	NA	0	203	203	68	677.4930724003352	NA	NA	NA	NA	678.0321293999441	678.0321293999441	right	1	2.957646199967712	NA	BMI	001	2026-03-13_13h41.14.891	MR	2023.1.0	59.98598727840456	NA
mr_images/3_a.png	mr_images/3_a_z_225.png	left	ccw	135	NA	NA	NA	NA	0	204	204	83	681.0135372001678	NA	NA	NA	NA	681.5421241000295	681.5421241000295	right	0	1.6823873003013432	NA	BMI	001	2026-03-13_13h41.14.891	MR	2023.1.0	59.98598727840456	NA
mr_images/11_b.png	mr_images/11_a_z_135.png	right	cw	135	NA	NA	NA	NA	0	205	205	44	683.2421396002173	NA	NA	NA	NA	683.7753531001508	683.7753531001508	left	0	2.4698073002509773	NA	BMI	001	2026-03-13_13h41.14.891	MR	2023.1.0	59.98598727840456	NA
mr_images/6_b.png	mr_images/6_a_z_135.png	right	cw	135	NA	NA	NA	NA	0	206	206	164	686.2751503000036	NA	NA	NA	NA	686.8087430000305	686.8087430000305	left	0	3.2975298003293574	NA	BMI	001	2026-03-13_13h41.14.891	MR	2023.1.0	59.98598727840456	NA
mr_images/5_a.png	mr_images/5_b_z_315.png	right	ccw	45	NA	NA	NA	NA	0	207	207	122	690.1249800003134	NA	NA	NA	NA	690.6578073003329	690.6578073003329	left	0	1.1002529002726078	NA	BMI	001	2026-03-13_13h41.14.891	MR	2023.1.0	59.98598727840456	NA
mr_images/5_b.png	mr_images/5_b_z_90.png	left	cw	90	NA	NA	NA	NA	0	208	208	137	691.7743391999975	NA	NA	NA	NA	692.3242691000924	692.3242691000924	right	0	1.5010612001642585	NA	BMI	001	2026-03-13_13h41.14.891	MR	2023.1.0	59.98598727840456	NA
mr_images/12_b.png	mr_images/12_a_z_90.png	right	cw	90	NA	NA	NA	NA	0	209	209	64	693.8573998999782	NA	NA	NA	NA	694.3976829000749	694.3976829000749	left	0	3.713966299779713	NA	BMI	001	2026-03-13_13h41.14.891	MR	2023.1.0	59.98598727840456	NA
mr_images/9_a.png	mr_images/9_b_z_45.png	right	cw	45	NA	NA	NA	NA	0	210	210	192	698.127737800125	NA	NA	NA	NA	698.673978399951	698.673978399951	left	0	2.7485883999615908	NA	BMI	001	2026-03-13_13h41.14.891	MR	2023.1.0	59.98598727840456	NA
mr_images/6_a.png	mr_images/6_b_z_90.png	right	cw	90	NA	NA	NA	NA	0	211	211	148	701.4396450002678	NA	NA	NA	NA	701.9737180001102	701.9737180001102	left	0	2.101403800304979	NA	BMI	001	2026-03-13_13h41.14.891	MR	2023.1.0	59.98598727840456	NA
mr_images/5_b.png	mr_images/5_a_z_315.png	right	ccw	45	NA	NA	NA	NA	0	212	212	134	704.1059453003109	NA	NA	NA	NA	704.6392765999772	704.6392765999772	left	0	1.5202324003912508	NA	BMI	001	2026-03-13_13h41.14.891	MR	2023.1.0	59.98598727840456	NA
mr_images/6_a.png	mr_images/6_a_z_270.png	left	ccw	90	NA	NA	NA	NA	0	213	213	151	706.1891288002953	NA	NA	NA	NA	706.7397843999788	706.7397843999788	right	0	0.9786124001257122	NA	BMI	001	2026-03-13_13h41.14.891	MR	2023.1.0	59.98598727840456	NA
mr_images/9_b.png	mr_images/9_a_z_225.png	right	ccw	135	NA	NA	NA	NA	0	214	214	214	707.7387728001922	NA	NA	NA	NA	708.2719831001014	708.2719831001014	left	0	2.3554464001208544	NA	BMI	001	2026-03-13_13h41.14.891	MR	2023.1.0	59.98598727840456	NA
mr_images/9_b.png	mr_images/9_b_z_45.png	left	cw	45	NA	NA	NA	NA	0	215	215	205	710.6552102002315	NA	NA	NA	NA	711.20501470007	711.20501470007	right	0	1.2698033000342548	NA	BMI	001	2026-03-13_13h41.14.891	MR	2023.1.0	59.98598727840456	NA
NA	NA	NA	NA	NA	NA	NA	NA	NA	NA	NA	NA	NA	NA	NA	NA	NA	NA	NA	NA	NA	NA	NA	712.5083932001144	NA	NA	NA	NA	NA	NA	NA
