sequence	training_session.thisRepN	training_session.thisTrialN	training_session.thisN	training_session.thisIndex	training_2n.thisRepN	training_2n.thisTrialN	training_2n.thisN	training_2n.thisIndex	training_3n.thisRepN	training_3n.thisTrialN	training_3n.thisN	training_3n.thisIndex	training_4n.thisRepN	training_4n.thisTrialN	training_4n.thisN	training_4n.thisIndex	allrep_2nback.thisRepN	allrep_2nback.thisTrialN	allrep_2nback.thisN	allrep_2nback.thisIndex	trials_2nback.thisRepN	trials_2nback.thisTrialN	trials_2nback.thisN	trials_2nback.thisIndex	allrep_3nback.thisRepN	allrep_3nback.thisTrialN	allrep_3nback.thisN	allrep_3nback.thisIndex	trials_3nback.thisRepN	trials_3nback.thisTrialN	trials_3nback.thisN	trials_3nback.thisIndex	allrep_4nback.thisRepN	allrep_4nback.thisTrialN	allrep_4nback.thisN	allrep_4nback.thisIndex	trials_4nback.thisRepN	trials_4nback.thisTrialN	trials_4nback.thisN	trials_4nback.thisIndex	buffer02_txt.started	test_griddot_resp2.started	test_griddot_resp2.keys	test_griddot_resp2.rt	buffer23_txt.started	test_griddot_resp3.started	test_griddot_resp3.keys	test_griddot_resp3.rt	buffer34_txt.started	test_griddot_resp4.started	test_griddot_resp4.keys	test_griddot_resp4.rt	confirm_resp.started	confirm_resp.keys	confirm_resp.rt	instr_text_2.started	buffer02_txt.stopped	griddot_resp2.started	griddot_resp2.keys	griddot_resp2.rt	buffer23_txt.stopped	griddot_resp3.started	griddot_resp3.keys	griddot_resp3.rt	buffer34_txt.stopped	griddot_resp4.started	griddot_resp4.keys	griddot_resp4.rt	participant	session	date	expName	psychopyVersion	frameRate	...76
[(2, 1), (0, 2), (2, 2), (0, 2), (2, 1), (0, 2), (0, 0), (1, 0)]	0	0	0	0	0	0	0	69	NA	NA	NA	NA	NA	NA	NA	NA	NA	NA	NA	NA	NA	NA	NA	NA	NA	NA	NA	NA	NA	NA	NA	NA	NA	NA	NA	NA	NA	NA	NA	NA	227.98568750033155	232.13629900012165	['left', 'left', 'left']	[5.1510911998339, 7.807919299695641, 15.740293299779296]	NA	NA	NA	NA	NA	NA	NA	NA	NA	NA	NA	NA	NA	NA	NA	NA	NA	NA	NA	NA	NA	NA	NA	NA	BMI	001	2026-03-13_12h45.20.478	SS	2023.1.0	59.92107189326074	NA
[(0, 1), (0, 1), (0, 1), (0, 1), (2, 1), (1, 0), (2, 1), (0, 1)]	0	0	0	0	0	1	1	618	NA	NA	NA	NA	NA	NA	NA	NA	NA	NA	NA	NA	NA	NA	NA	NA	NA	NA	NA	NA	NA	NA	NA	NA	NA	NA	NA	NA	NA	NA	NA	NA	NA	249.03251540008932	['right', 'right', 'left', 'left', 'right', 'left']	[4.86753339972347, 7.3347887001000345, 9.29722089972347, 11.22635899996385, 13.029589499812573, 15.242863599676639]	NA	NA	NA	NA	NA	NA	NA	NA	NA	NA	NA	NA	NA	NA	NA	NA	NA	NA	NA	NA	NA	NA	NA	NA	BMI	001	2026-03-13_12h45.20.478	SS	2023.1.0	59.92107189326074	NA
[(0, 1), (2, 2), (0, 1), (2, 1), (0, 1), (2, 2), (0, 1), (2, 1)]	0	0	0	0	0	2	2	176	NA	NA	NA	NA	NA	NA	NA	NA	NA	NA	NA	NA	NA	NA	NA	NA	NA	NA	NA	NA	NA	NA	NA	NA	NA	NA	NA	NA	NA	NA	NA	NA	NA	266.063851099927	['right', 'left', 'right', 'left', 'right', 'left']	[4.94077969994396, 6.832544299773872, 8.699653699994087, 11.015026499982923, 13.416435999795794, 15.036830299999565]	NA	NA	NA	NA	NA	NA	NA	NA	NA	NA	NA	NA	NA	NA	NA	NA	NA	NA	NA	NA	NA	NA	NA	NA	BMI	001	2026-03-13_12h45.20.478	SS	2023.1.0	59.92107189326074	NA
[(1, 1), (0, 1), (1, 2), (1, 1), (0, 1), (0, 0), (2, 0), (0, 0), (2, 0)]	0	0	0	0	NA	NA	NA	NA	0	0	0	357	NA	NA	NA	NA	NA	NA	NA	NA	NA	NA	NA	NA	NA	NA	NA	NA	NA	NA	NA	NA	NA	NA	NA	NA	NA	NA	NA	NA	NA	NA	NA	NA	282.9947260003537	287.06243599997833	['right', 'right', 'left', 'left', 'left', 'right']	[7.810771100223064, 9.085010200273246, 10.609201600309461, 13.23968579992652, 15.544448500033468, 17.175943300127983]	NA	NA	NA	NA	NA	NA	NA	NA	NA	NA	NA	NA	NA	NA	NA	NA	NA	NA	NA	NA	BMI	001	2026-03-13_12h45.20.478	SS	2023.1.0	59.92107189326074	NA
[(1, 2), (0, 0), (0, 1), (2, 0), (1, 0), (1, 0), (2, 1), (1, 0), (1, 0)]	0	0	0	0	NA	NA	NA	NA	0	1	1	35	NA	NA	NA	NA	NA	NA	NA	NA	NA	NA	NA	NA	NA	NA	NA	NA	NA	NA	NA	NA	NA	NA	NA	NA	NA	NA	NA	NA	NA	NA	NA	NA	NA	306.05806510010734	['left', 'left', 'left', 'left', 'right', 'left']	[7.0522358999587595, 9.162255799863487, 10.71282930020243, 13.478653099853545, 15.405149600002915, 17.11982520017773]	NA	NA	NA	NA	NA	NA	NA	NA	NA	NA	NA	NA	NA	NA	NA	NA	NA	NA	NA	NA	BMI	001	2026-03-13_12h45.20.478	SS	2023.1.0	59.92107189326074	NA
[(2, 2), (1, 2), (2, 2), (0, 2), (1, 1), (2, 2), (2, 0), (2, 1), (2, 2)]	0	0	0	0	NA	NA	NA	NA	0	2	2	639	NA	NA	NA	NA	NA	NA	NA	NA	NA	NA	NA	NA	NA	NA	NA	NA	NA	NA	NA	NA	NA	NA	NA	NA	NA	NA	NA	NA	NA	NA	NA	NA	NA	325.0578799000941	['left', 'left', 'right', 'left', 'left', 'right']	[7.6143340999260545, 9.034570400137454, 11.001327500212938, 13.546120800077915, 15.625421900302172, 17.652798800263554]	NA	NA	NA	NA	NA	NA	NA	NA	NA	NA	NA	NA	NA	NA	NA	NA	NA	NA	NA	NA	BMI	001	2026-03-13_12h45.20.478	SS	2023.1.0	59.92107189326074	NA
[(1, 1), (0, 1), (0, 1), (2, 0), (1, 1), (1, 1), (2, 2), (0, 0), (1, 1), (1, 2)]	0	0	0	0	NA	NA	NA	NA	NA	NA	NA	NA	0	0	0	8	NA	NA	NA	NA	NA	NA	NA	NA	NA	NA	NA	NA	NA	NA	NA	NA	NA	NA	NA	NA	NA	NA	NA	NA	NA	NA	NA	NA	NA	NA	NA	NA	343.98627640027553	348.0691802999936	['right', 'left', 'left', 'right']	[11.263491199817508, 13.242770599666983, 14.932955799624324, 17.29433579975739]	NA	NA	NA	NA	NA	NA	NA	NA	NA	NA	NA	NA	NA	NA	NA	NA	BMI	001	2026-03-13_12h45.20.478	SS	2023.1.0	59.92107189326074	NA
[(0, 0), (2, 1), (2, 1), (0, 1), (1, 1), (2, 1), (0, 1), (1, 0), (1, 0), (2, 1)]	0	0	0	0	NA	NA	NA	NA	NA	NA	NA	NA	0	1	1	132	NA	NA	NA	NA	NA	NA	NA	NA	NA	NA	NA	NA	NA	NA	NA	NA	NA	NA	NA	NA	NA	NA	NA	NA	NA	NA	NA	NA	NA	NA	NA	NA	NA	369.0680198003538	['left', 'left', 'left', 'right', 'right']	[9.092252400238067, 13.39316980028525, 15.465506200212985, 17.19665620010346, 19.447085299994797]	NA	NA	NA	NA	NA	NA	NA	NA	NA	NA	NA	NA	NA	NA	NA	NA	BMI	001	2026-03-13_12h45.20.478	SS	2023.1.0	59.92107189326074	NA
[(2, 0), (0, 1), (2, 0), (0, 0), (2, 1), (0, 1), (2, 0), (1, 0), (1, 0), (0, 2)]	0	0	0	0	NA	NA	NA	NA	NA	NA	NA	NA	0	2	2	440	NA	NA	NA	NA	NA	NA	NA	NA	NA	NA	NA	NA	NA	NA	NA	NA	NA	NA	NA	NA	NA	NA	NA	NA	NA	NA	NA	NA	NA	NA	NA	NA	NA	390.0669851000421	['left', 'right', 'right', 'left', 'left', 'left']	[9.071383600123227, 11.325618099886924, 13.482915899716318, 15.159120500087738, 17.736166500020772, 19.318419099785388]	NA	NA	NA	NA	NA	NA	NA	NA	NA	NA	NA	NA	NA	NA	NA	NA	BMI	001	2026-03-13_12h45.20.478	SS	2023.1.0	59.92107189326074	NA
NA	0	0	0	0	NA	NA	NA	NA	NA	NA	NA	NA	NA	NA	NA	NA	NA	NA	NA	NA	NA	NA	NA	NA	NA	NA	NA	NA	NA	NA	NA	NA	NA	NA	NA	NA	NA	NA	NA	NA	NA	NA	NA	NA	NA	NA	NA	NA	NA	NA	NA	NA	410.01022990001366	y	30.095333700068295	NA	NA	NA	NA	NA	NA	NA	NA	NA	NA	NA	NA	NA	BMI	001	2026-03-13_12h45.20.478	SS	2023.1.0	59.92107189326074	NA
[(0, 1), (2, 2), (0, 1), (2, 0), (2, 1), (0, 1), (2, 2), (0, 1)]	NA	NA	NA	NA	NA	NA	NA	NA	NA	NA	NA	NA	NA	NA	NA	NA	0	0	0	0	0	0	0	114	NA	NA	NA	NA	NA	NA	NA	NA	NA	NA	NA	NA	NA	NA	NA	NA	465.6027609002776	NA	NA	NA	NA	NA	NA	NA	NA	NA	NA	NA	NA	NA	NA	440.1228069001809	468.7020157002844	469.68543980037794	['right', 'left', 'left', 'right', 'left', 'right']	[5.533619099762291, 6.990765399765223, 8.761943200137466, 11.659282600041479, 13.728437999729067, 15.764133600052446]	NA	NA	NA	NA	NA	NA	NA	NA	BMI	001	2026-03-13_12h45.20.478	SS	2023.1.0	59.92107189326074	NA
[(0, 0), (2, 2), (2, 2), (2, 0), (2, 2), (2, 2), (2, 2), (2, 1)]	NA	NA	NA	NA	NA	NA	NA	NA	NA	NA	NA	NA	NA	NA	NA	NA	0	0	0	0	0	1	1	80	NA	NA	NA	NA	NA	NA	NA	NA	NA	NA	NA	NA	NA	NA	NA	NA	NA	NA	NA	NA	NA	NA	NA	NA	NA	NA	NA	NA	NA	NA	NA	NA	NA	486.6830095001496	['right', 'left', 'right', 'left', 'right', 'left']	[5.984690200071782, 7.202109500300139, 9.238702000118792, 11.233063000254333, 13.21732660010457, 15.230412300210446]	NA	NA	NA	NA	NA	NA	NA	NA	BMI	001	2026-03-13_12h45.20.478	SS	2023.1.0	59.92107189326074	NA
[(0, 2), (2, 2), (2, 1), (2, 1), (2, 0), (2, 2), (2, 0), (2, 2)]	NA	NA	NA	NA	NA	NA	NA	NA	NA	NA	NA	NA	NA	NA	NA	NA	0	0	0	0	0	2	2	491	NA	NA	NA	NA	NA	NA	NA	NA	NA	NA	NA	NA	NA	NA	NA	NA	NA	NA	NA	NA	NA	NA	NA	NA	NA	NA	NA	NA	NA	NA	NA	NA	NA	503.69727479992434	['left', 'left', 'left', 'right', 'right', 'right']	[4.9079780001193285, 7.066737700253725, 8.961435200180858, 11.185688400175422, 13.66851230012253, 15.385070900432765]	NA	NA	NA	NA	NA	NA	NA	NA	BMI	001	2026-03-13_12h45.20.478	SS	2023.1.0	59.92107189326074	NA
[(0, 1), (0, 0), (0, 2), (2, 0), (0, 2), (1, 1), (0, 2), (0, 0)]	NA	NA	NA	NA	NA	NA	NA	NA	NA	NA	NA	NA	NA	NA	NA	NA	0	0	0	0	0	3	3	399	NA	NA	NA	NA	NA	NA	NA	NA	NA	NA	NA	NA	NA	NA	NA	NA	NA	NA	NA	NA	NA	NA	NA	NA	NA	NA	NA	NA	NA	NA	NA	NA	NA	520.6786138000898	['left', 'left', 'right', 'left', 'right', 'left']	[5.016632599756122, 6.970326100010425, 8.811179600190371, 10.889359700027853, 13.133509200066328, 15.143474400043488]	NA	NA	NA	NA	NA	NA	NA	NA	BMI	001	2026-03-13_12h45.20.478	SS	2023.1.0	59.92107189326074	NA
[(1, 2), (1, 0), (2, 2), (0, 2), (2, 2), (0, 2), (2, 1), (0, 1)]	NA	NA	NA	NA	NA	NA	NA	NA	NA	NA	NA	NA	NA	NA	NA	NA	0	0	0	0	0	4	4	600	NA	NA	NA	NA	NA	NA	NA	NA	NA	NA	NA	NA	NA	NA	NA	NA	NA	NA	NA	NA	NA	NA	NA	NA	NA	NA	NA	NA	NA	NA	NA	NA	NA	537.6927162003703	['left', 'left', 'right', 'right', 'left', 'left']	[4.9159773997962475, 7.026102900039405, 8.792264100164175, 11.410034599713981, 12.875251399818808, 15.024180799722672]	NA	NA	NA	NA	NA	NA	NA	NA	BMI	001	2026-03-13_12h45.20.478	SS	2023.1.0	59.92107189326074	NA
[(1, 1), (1, 1), (1, 1), (1, 1), (0, 1), (2, 1), (1, 2), (2, 0)]	NA	NA	NA	NA	NA	NA	NA	NA	NA	NA	NA	NA	NA	NA	NA	NA	0	0	0	0	0	5	5	101	NA	NA	NA	NA	NA	NA	NA	NA	NA	NA	NA	NA	NA	NA	NA	NA	NA	NA	NA	NA	NA	NA	NA	NA	NA	NA	NA	NA	NA	NA	NA	NA	NA	554.6737175001763	['right', 'right', 'left', 'left', 'left', 'left']	[4.977294000331312, 6.648532200139016, 8.693354200106114, 11.150091800373048, 12.98444400029257, 15.013134700246155]	NA	NA	NA	NA	NA	NA	NA	NA	BMI	001	2026-03-13_12h45.20.478	SS	2023.1.0	59.92107189326074	NA
NA	NA	NA	NA	NA	NA	NA	NA	NA	NA	NA	NA	NA	NA	NA	NA	NA	0	0	0	0	NA	NA	NA	NA	NA	NA	NA	NA	NA	NA	NA	NA	NA	NA	NA	NA	NA	NA	NA	NA	NA	NA	NA	NA	NA	NA	NA	NA	NA	NA	NA	NA	NA	NA	NA	NA	NA	NA	NA	NA	NA	NA	NA	NA	NA	NA	NA	NA	BMI	001	2026-03-13_12h45.20.478	SS	2023.1.0	59.92107189326074	NA
[(1, 2), (0, 0), (1, 2), (1, 2), (2, 0), (2, 1), (2, 0), (1, 2)]	NA	NA	NA	NA	NA	NA	NA	NA	NA	NA	NA	NA	NA	NA	NA	NA	1	0	1	0	0	0	0	321	NA	NA	NA	NA	NA	NA	NA	NA	NA	NA	NA	NA	NA	NA	NA	NA	NA	NA	NA	NA	NA	NA	NA	NA	NA	NA	NA	NA	NA	NA	NA	NA	NA	574.3709479002282	['right', 'left', 'left', 'left', 'right', 'left']	[4.714199599809945, 6.992757000029087, 9.129237500019372, 10.88331410009414, 12.725626799743623, 14.680823999922723]	NA	NA	NA	NA	NA	NA	NA	NA	BMI	001	2026-03-13_12h45.20.478	SS	2023.1.0	59.92107189326074	NA
[(1, 1), (2, 2), (0, 1), (2, 0), (2, 0), (0, 2), (2, 0), (0, 2)]	NA	NA	NA	NA	NA	NA	NA	NA	NA	NA	NA	NA	NA	NA	NA	NA	1	0	1	0	0	1	1	347	NA	NA	NA	NA	NA	NA	NA	NA	NA	NA	NA	NA	NA	NA	NA	NA	NA	NA	NA	NA	NA	NA	NA	NA	NA	NA	NA	NA	NA	NA	NA	NA	NA	591.3686366002075	['left', 'left', 'left', 'left', 'right', 'right']	[4.705922400113195, 6.6668583997525275, 9.801696199923754, 11.37011309992522, 12.940397299826145, 15.374703699722886]	NA	NA	NA	NA	NA	NA	NA	NA	BMI	001	2026-03-13_12h45.20.478	SS	2023.1.0	59.92107189326074	NA
[(0, 0), (0, 2), (2, 0), (0, 2), (2, 1), (2, 2), (1, 0), (2, 2)]	NA	NA	NA	NA	NA	NA	NA	NA	NA	NA	NA	NA	NA	NA	NA	NA	1	0	1	0	0	2	2	300	NA	NA	NA	NA	NA	NA	NA	NA	NA	NA	NA	NA	NA	NA	NA	NA	NA	NA	NA	NA	NA	NA	NA	NA	NA	NA	NA	NA	NA	NA	NA	NA	NA	608.3665344999172	['left', 'right', 'left', 'left', 'left', 'right']	[4.850364399608225, 6.729540899861604, 9.288045999594033, 11.373534599784762, 12.891036799643189, 14.51358739985153]	NA	NA	NA	NA	NA	NA	NA	NA	BMI	001	2026-03-13_12h45.20.478	SS	2023.1.0	59.92107189326074	NA
[(2, 2), (0, 1), (2, 0), (2, 0), (2, 0), (0, 2), (0, 2), (0, 2)]	NA	NA	NA	NA	NA	NA	NA	NA	NA	NA	NA	NA	NA	NA	NA	NA	1	0	1	0	0	3	3	232	NA	NA	NA	NA	NA	NA	NA	NA	NA	NA	NA	NA	NA	NA	NA	NA	NA	NA	NA	NA	NA	NA	NA	NA	NA	NA	NA	NA	NA	NA	NA	NA	NA	625.3805182999931	['left', 'left', 'right', 'left', 'left', 'right']	[4.59834080003202, 6.582698800135404, 8.819281599950045, 11.08558959979564, 13.529430999886245, 14.724413599818945]	NA	NA	NA	NA	NA	NA	NA	NA	BMI	001	2026-03-13_12h45.20.478	SS	2023.1.0	59.92107189326074	NA
[(1, 0), (0, 0), (1, 2), (0, 0), (0, 2), (1, 2), (1, 1), (1, 2)]	NA	NA	NA	NA	NA	NA	NA	NA	NA	NA	NA	NA	NA	NA	NA	NA	1	0	1	0	0	4	4	331	NA	NA	NA	NA	NA	NA	NA	NA	NA	NA	NA	NA	NA	NA	NA	NA	NA	NA	NA	NA	NA	NA	NA	NA	NA	NA	NA	NA	NA	NA	NA	NA	NA	642.378169500269	['left', 'right', 'left', 'left', 'left', 'right']	[4.774521199986339, 7.528762699570507, 9.380871799774468, 11.368153799790889, 12.91640879958868, 15.211535399779677]	NA	NA	NA	NA	NA	NA	NA	NA	BMI	001	2026-03-13_12h45.20.478	SS	2023.1.0	59.92107189326074	NA
[(1, 1), (2, 1), (1, 1), (2, 1), (1, 2), (1, 2), (0, 0), (0, 0)]	NA	NA	NA	NA	NA	NA	NA	NA	NA	NA	NA	NA	NA	NA	NA	NA	1	0	1	0	0	5	5	250	NA	NA	NA	NA	NA	NA	NA	NA	NA	NA	NA	NA	NA	NA	NA	NA	NA	NA	NA	NA	NA	NA	NA	NA	NA	NA	NA	NA	NA	NA	NA	NA	NA	659.3592374003492	['right', 'right', 'left', 'left', 'left', 'left']	[4.635913399979472, 6.844723999965936, 8.899112400133163, 11.148374599870294, 13.040505799930543, 14.94472450017929]	NA	NA	NA	NA	NA	NA	NA	NA	BMI	001	2026-03-13_12h45.20.478	SS	2023.1.0	59.92107189326074	NA
NA	NA	NA	NA	NA	NA	NA	NA	NA	NA	NA	NA	NA	NA	NA	NA	NA	1	0	1	0	NA	NA	NA	NA	NA	NA	NA	NA	NA	NA	NA	NA	NA	NA	NA	NA	NA	NA	NA	NA	NA	NA	NA	NA	NA	NA	NA	NA	NA	NA	NA	NA	NA	NA	NA	NA	NA	NA	NA	NA	NA	NA	NA	NA	NA	NA	NA	NA	BMI	001	2026-03-13_12h45.20.478	SS	2023.1.0	59.92107189326074	NA
[(0, 0), (1, 0), (1, 2), (0, 0), (1, 0), (2, 1), (0, 2), (1, 0), (2, 2)]	NA	NA	NA	NA	NA	NA	NA	NA	NA	NA	NA	NA	NA	NA	NA	NA	NA	NA	NA	NA	NA	NA	NA	NA	0	0	0	0	0	0	0	76	NA	NA	NA	NA	NA	NA	NA	NA	NA	NA	NA	NA	677.6565697002225	NA	NA	NA	NA	NA	NA	NA	NA	NA	NA	NA	NA	NA	NA	NA	680.7430186001584	681.7229065001011	['right', 'left', 'left', 'right']	[9.843339399900287, 10.82502290001139, 13.26268249982968, 15.407430400140584]	NA	NA	NA	NA	BMI	001	2026-03-13_12h45.20.478	SS	2023.1.0	59.92107189326074	NA
[(1, 2), (2, 0), (2, 0), (0, 0), (2, 0), (2, 0), (2, 2), (2, 2), (2, 0)]	NA	NA	NA	NA	NA	NA	NA	NA	NA	NA	NA	NA	NA	NA	NA	NA	NA	NA	NA	NA	NA	NA	NA	NA	0	0	0	0	0	1	1	340	NA	NA	NA	NA	NA	NA	NA	NA	NA	NA	NA	NA	NA	NA	NA	NA	NA	NA	NA	NA	NA	NA	NA	NA	NA	NA	NA	NA	NA	700.7535224999301	['left', 'right', 'right', 'left', 'left', 'right']	[6.853645800147206, 8.898826700169593, 11.133548399899155, 13.065406300127506, 15.046609200071543, 17.384015399962664]	NA	NA	NA	NA	BMI	001	2026-03-13_12h45.20.478	SS	2023.1.0	59.92107189326074	NA
[(2, 2), (0, 1), (1, 0), (2, 0), (1, 2), (1, 0), (1, 2), (1, 2), (0, 1)]	NA	NA	NA	NA	NA	NA	NA	NA	NA	NA	NA	NA	NA	NA	NA	NA	NA	NA	NA	NA	NA	NA	NA	NA	0	0	0	0	0	2	2	149	NA	NA	NA	NA	NA	NA	NA	NA	NA	NA	NA	NA	NA	NA	NA	NA	NA	NA	NA	NA	NA	NA	NA	NA	NA	NA	NA	NA	NA	719.7344702002592	['left', 'left', 'right', 'right', 'left', 'left']	[6.937635800335556, 9.246697300113738, 11.209820100106299, 13.715109399985522, 15.99091920023784, 17.829694699961692]	NA	NA	NA	NA	BMI	001	2026-03-13_12h45.20.478	SS	2023.1.0	59.92107189326074	NA
[(1, 0), (1, 2), (0, 0), (1, 0), (1, 2), (1, 1), (0, 2), (0, 1), (0, 0)]	NA	NA	NA	NA	NA	NA	NA	NA	NA	NA	NA	NA	NA	NA	NA	NA	NA	NA	NA	NA	NA	NA	NA	NA	0	0	0	0	0	3	3	250	NA	NA	NA	NA	NA	NA	NA	NA	NA	NA	NA	NA	NA	NA	NA	NA	NA	NA	NA	NA	NA	NA	NA	NA	NA	NA	NA	NA	NA	738.7480227001943	['right', 'right', 'left', 'left', 'left', 'left']	[7.196820400189608, 9.068242799956352, 10.836610300000757, 13.364771999884397, 15.20194000005722, 17.401708099991083]	NA	NA	NA	NA	BMI	001	2026-03-13_12h45.20.478	SS	2023.1.0	59.92107189326074	NA
[(0, 2), (0, 2), (1, 2), (0, 2), (1, 1), (1, 1), (1, 0), (1, 2), (1, 1)]	NA	NA	NA	NA	NA	NA	NA	NA	NA	NA	NA	NA	NA	NA	NA	NA	NA	NA	NA	NA	NA	NA	NA	NA	0	0	0	0	0	4	4	445	NA	NA	NA	NA	NA	NA	NA	NA	NA	NA	NA	NA	NA	NA	NA	NA	NA	NA	NA	NA	NA	NA	NA	NA	NA	NA	NA	NA	NA	757.7287910003215	['right', 'left', 'left', 'left', 'right', 'right']	[7.13489789981395, 9.040564099792391, 11.345934099983424, 12.979184699710459, 14.953390199691057, 16.96296379994601]	NA	NA	NA	NA	BMI	001	2026-03-13_12h45.20.478	SS	2023.1.0	59.92107189326074	NA
[(0, 0), (2, 0), (2, 0), (2, 2), (2, 1), (2, 0), (2, 1), (1, 0), (2, 0)]	NA	NA	NA	NA	NA	NA	NA	NA	NA	NA	NA	NA	NA	NA	NA	NA	NA	NA	NA	NA	NA	NA	NA	NA	0	0	0	0	0	5	5	374	NA	NA	NA	NA	NA	NA	NA	NA	NA	NA	NA	NA	NA	NA	NA	NA	NA	NA	NA	NA	NA	NA	NA	NA	NA	NA	NA	NA	NA	776.7425486003049	['left', 'left', 'right', 'left', 'left', 'right']	[6.739082300104201, 9.018268899992108, 11.392566100228578, 13.309645500034094, 15.465150100179017, 17.87735870014876]	NA	NA	NA	NA	BMI	001	2026-03-13_12h45.20.478	SS	2023.1.0	59.92107189326074	NA
NA	NA	NA	NA	NA	NA	NA	NA	NA	NA	NA	NA	NA	NA	NA	NA	NA	NA	NA	NA	NA	NA	NA	NA	NA	0	0	0	0	NA	NA	NA	NA	NA	NA	NA	NA	NA	NA	NA	NA	NA	NA	NA	NA	NA	NA	NA	NA	NA	NA	NA	NA	NA	NA	NA	NA	NA	NA	NA	NA	NA	NA	NA	NA	NA	NA	NA	NA	BMI	001	2026-03-13_12h45.20.478	SS	2023.1.0	59.92107189326074	NA
[(2, 2), (2, 1), (2, 2), (2, 2), (1, 2), (2, 0), (2, 0), (1, 2), (2, 2)]	NA	NA	NA	NA	NA	NA	NA	NA	NA	NA	NA	NA	NA	NA	NA	NA	NA	NA	NA	NA	NA	NA	NA	NA	1	0	1	0	0	0	0	428	NA	NA	NA	NA	NA	NA	NA	NA	NA	NA	NA	NA	NA	NA	NA	NA	NA	NA	NA	NA	NA	NA	NA	NA	NA	NA	NA	NA	NA	798.2561743003316	['right', 'left', 'left', 'left', 'right', 'left']	[6.974323999602348, 8.842562399804592, 11.273087399546057, 12.72535919956863, 14.4952920996584, 17.65565129974857]	NA	NA	NA	NA	BMI	001	2026-03-13_12h45.20.478	SS	2023.1.0	59.92107189326074	NA
[(2, 1), (0, 1), (0, 1), (0, 1), (2, 1), (0, 1), (0, 1), (1, 1), (0, 2)]	NA	NA	NA	NA	NA	NA	NA	NA	NA	NA	NA	NA	NA	NA	NA	NA	NA	NA	NA	NA	NA	NA	NA	NA	1	0	1	0	0	1	1	593	NA	NA	NA	NA	NA	NA	NA	NA	NA	NA	NA	NA	NA	NA	NA	NA	NA	NA	NA	NA	NA	NA	NA	NA	NA	NA	NA	NA	NA	817.253680200316	['left', 'left', 'right', 'left', 'left', 'left']	[7.015276399906725, 9.420249700080603, 11.039971299935132, 13.500323100015521, 15.142478100024164, 17.071575900074095]	NA	NA	NA	NA	BMI	001	2026-03-13_12h45.20.478	SS	2023.1.0	59.92107189326074	NA
[(1, 1), (0, 1), (1, 2), (2, 1), (1, 1), (1, 2), (0, 2), (1, 1), (0, 0)]	NA	NA	NA	NA	NA	NA	NA	NA	NA	NA	NA	NA	NA	NA	NA	NA	NA	NA	NA	NA	NA	NA	NA	NA	1	0	1	0	0	2	2	691	NA	NA	NA	NA	NA	NA	NA	NA	NA	NA	NA	NA	NA	NA	NA	NA	NA	NA	NA	NA	NA	NA	NA	NA	NA	NA	NA	NA	NA	836.2681076000445	['left', 'left', 'right', 'left', 'right', 'left']	[6.96671470021829, 8.94678879994899, 11.26650660019368, 13.112997699994594, 15.092361600138247, 17.08558569988236]	NA	NA	NA	NA	BMI	001	2026-03-13_12h45.20.478	SS	2023.1.0	59.92107189326074	NA
[(2, 1), (1, 2), (1, 2), (2, 1), (0, 2), (1, 1), (0, 0), (2, 0), (1, 1)]	NA	NA	NA	NA	NA	NA	NA	NA	NA	NA	NA	NA	NA	NA	NA	NA	NA	NA	NA	NA	NA	NA	NA	NA	1	0	1	0	0	3	3	60	NA	NA	NA	NA	NA	NA	NA	NA	NA	NA	NA	NA	NA	NA	NA	NA	NA	NA	NA	NA	NA	NA	NA	NA	NA	NA	NA	NA	NA	855.2487894999795	['right', 'left', 'left', 'left', 'left', 'right']	[6.616788299754262, 8.85832230001688, 11.021683499682695, 12.738937600050122, 15.160126300062984, 17.47359299985692]	NA	NA	NA	NA	BMI	001	2026-03-13_12h45.20.478	SS	2023.1.0	59.92107189326074	NA
[(1, 1), (0, 2), (0, 2), (2, 1), (0, 2), (1, 2), (2, 1), (2, 0), (0, 2)]	NA	NA	NA	NA	NA	NA	NA	NA	NA	NA	NA	NA	NA	NA	NA	NA	NA	NA	NA	NA	NA	NA	NA	NA	1	0	1	0	0	4	4	352	NA	NA	NA	NA	NA	NA	NA	NA	NA	NA	NA	NA	NA	NA	NA	NA	NA	NA	NA	NA	NA	NA	NA	NA	NA	NA	NA	NA	NA	874.245863399934	['left', 'right', 'left', 'left', 'left', 'right']	[6.7309799999929965, 9.01223130011931, 10.79455260001123, 13.49374879989773, 14.945716300047934, 17.239718100056052]	NA	NA	NA	NA	BMI	001	2026-03-13_12h45.20.478	SS	2023.1.0	59.92107189326074	NA
[(0, 1), (2, 0), (0, 2), (1, 2), (1, 0), (0, 2), (1, 2), (0, 1), (1, 2)]	NA	NA	NA	NA	NA	NA	NA	NA	NA	NA	NA	NA	NA	NA	NA	NA	NA	NA	NA	NA	NA	NA	NA	NA	1	0	1	0	0	5	5	511	NA	NA	NA	NA	NA	NA	NA	NA	NA	NA	NA	NA	NA	NA	NA	NA	NA	NA	NA	NA	NA	NA	NA	NA	NA	NA	NA	NA	NA	893.2432499001734	['left', 'left', 'right', 'right', 'left', 'right']	[6.653864200226963, 8.827906500082463, 11.530977600254118, 13.062025300227106, 14.840297400020063, 17.786164899822325]	NA	NA	NA	NA	BMI	001	2026-03-13_12h45.20.478	SS	2023.1.0	59.92107189326074	NA
NA	NA	NA	NA	NA	NA	NA	NA	NA	NA	NA	NA	NA	NA	NA	NA	NA	NA	NA	NA	NA	NA	NA	NA	NA	1	0	1	0	NA	NA	NA	NA	NA	NA	NA	NA	NA	NA	NA	NA	NA	NA	NA	NA	NA	NA	NA	NA	NA	NA	NA	NA	NA	NA	NA	NA	NA	NA	NA	NA	NA	NA	NA	NA	NA	NA	NA	NA	BMI	001	2026-03-13_12h45.20.478	SS	2023.1.0	59.92107189326074	NA
[(1, 1), (1, 1), (2, 0), (0, 0), (0, 0), (1, 2), (2, 1), (0, 0), (0, 0), (0, 0)]	NA	NA	NA	NA	NA	NA	NA	NA	NA	NA	NA	NA	NA	NA	NA	NA	NA	NA	NA	NA	NA	NA	NA	NA	NA	NA	NA	NA	NA	NA	NA	NA	0	0	0	0	0	0	0	446	NA	NA	NA	NA	NA	NA	NA	NA	913.4238122003152	NA	NA	NA	NA	NA	NA	NA	NA	NA	NA	NA	NA	NA	NA	NA	916.4901149002836	917.5065632001496	['left', 'left', 'left', 'right', 'left', 'left']	[8.886076800059527, 10.839345800224692, 13.07589970016852, 15.63930210005492, 17.366040599998087, 19.09199419990182]	BMI	001	2026-03-13_12h45.20.478	SS	2023.1.0	59.92107189326074	NA
[(2, 0), (0, 2), (0, 0), (1, 1), (1, 0), (1, 0), (1, 1), (1, 1), (1, 0), (0, 1)]	NA	NA	NA	NA	NA	NA	NA	NA	NA	NA	NA	NA	NA	NA	NA	NA	NA	NA	NA	NA	NA	NA	NA	NA	NA	NA	NA	NA	NA	NA	NA	NA	0	0	0	0	0	1	1	542	NA	NA	NA	NA	NA	NA	NA	NA	NA	NA	NA	NA	NA	NA	NA	NA	NA	NA	NA	NA	NA	NA	NA	NA	NA	938.5202226000838	['left', 'left', 'right', 'left', 'left']	[8.637085000053048, 10.862718400079757, 13.112701800186187, 15.233989600092173, 18.865229400340468]	BMI	001	2026-03-13_12h45.20.478	SS	2023.1.0	59.92107189326074	NA
[(2, 2), (1, 2), (2, 0), (1, 1), (2, 2), (2, 1), (0, 1), (0, 2), (2, 2), (0, 0)]	NA	NA	NA	NA	NA	NA	NA	NA	NA	NA	NA	NA	NA	NA	NA	NA	NA	NA	NA	NA	NA	NA	NA	NA	NA	NA	NA	NA	NA	NA	NA	NA	0	0	0	0	0	2	2	679	NA	NA	NA	NA	NA	NA	NA	NA	NA	NA	NA	NA	NA	NA	NA	NA	NA	NA	NA	NA	NA	NA	NA	NA	NA	959.5006506000644	['left', 'left', 'left', 'right', 'left']	[10.74659170024097, 13.158636699896306, 15.359368099831045, 17.442536499816924, 18.870459500234574]	BMI	001	2026-03-13_12h45.20.478	SS	2023.1.0	59.92107189326074	NA
[(0, 2), (2, 1), (1, 2), (1, 1), (0, 1), (1, 0), (1, 2), (0, 2), (0, 2), (1, 0)]	NA	NA	NA	NA	NA	NA	NA	NA	NA	NA	NA	NA	NA	NA	NA	NA	NA	NA	NA	NA	NA	NA	NA	NA	NA	NA	NA	NA	NA	NA	NA	NA	0	0	0	0	0	3	3	15	NA	NA	NA	NA	NA	NA	NA	NA	NA	NA	NA	NA	NA	NA	NA	NA	NA	NA	NA	NA	NA	NA	NA	NA	NA	980.5011430000886	['left', 'left', 'left', 'left']	[9.367118400055915, 11.259062200319022, 17.145675000268966, 19.154788200277835]	BMI	001	2026-03-13_12h45.20.478	SS	2023.1.0	59.92107189326074	NA
[(1, 1), (0, 0), (2, 1), (0, 1), (0, 1), (0, 0), (2, 0), (1, 2), (0, 1), (2, 0)]	NA	NA	NA	NA	NA	NA	NA	NA	NA	NA	NA	NA	NA	NA	NA	NA	NA	NA	NA	NA	NA	NA	NA	NA	NA	NA	NA	NA	NA	NA	NA	NA	0	0	0	0	0	4	4	282	NA	NA	NA	NA	NA	NA	NA	NA	NA	NA	NA	NA	NA	NA	NA	NA	NA	NA	NA	NA	NA	NA	NA	NA	NA	1001.4630138999784	['left', 'right', 'left', 'left', 'right', 'right']	[9.364926800131798, 11.422113000415266, 13.151820400264114, 15.33300230000168, 17.5914943004027, 19.21285720029846]	BMI	001	2026-03-13_12h45.20.478	SS	2023.1.0	59.92107189326074	NA
[(1, 2), (2, 1), (2, 1), (1, 2), (0, 1), (2, 1), (0, 2), (2, 2), (0, 0), (2, 1)]	NA	NA	NA	NA	NA	NA	NA	NA	NA	NA	NA	NA	NA	NA	NA	NA	NA	NA	NA	NA	NA	NA	NA	NA	NA	NA	NA	NA	NA	NA	NA	NA	0	0	0	0	0	5	5	337	NA	NA	NA	NA	NA	NA	NA	NA	NA	NA	NA	NA	NA	NA	NA	NA	NA	NA	NA	NA	NA	NA	NA	NA	NA	1022.4792965003288	['left', 'right', 'left', 'left', 'left', 'left']	[9.043455100152642, 11.526605800259858, 13.105414400342852, 14.821199500001967, 17.504794700071216, 19.630526500288397]	BMI	001	2026-03-13_12h45.20.478	SS	2023.1.0	59.92107189326074	NA
NA	NA	NA	NA	NA	NA	NA	NA	NA	NA	NA	NA	NA	NA	NA	NA	NA	NA	NA	NA	NA	NA	NA	NA	NA	NA	NA	NA	NA	NA	NA	NA	NA	0	0	0	0	NA	NA	NA	NA	NA	NA	NA	NA	NA	NA	NA	NA	NA	NA	NA	NA	NA	NA	NA	NA	NA	NA	NA	NA	NA	NA	NA	NA	NA	NA	NA	NA	BMI	001	2026-03-13_12h45.20.478	SS	2023.1.0	59.92107189326074	NA
[(1, 1), (2, 2), (1, 0), (2, 0), (1, 2), (0, 0), (1, 0), (1, 0), (0, 0), (0, 0)]	NA	NA	NA	NA	NA	NA	NA	NA	NA	NA	NA	NA	NA	NA	NA	NA	NA	NA	NA	NA	NA	NA	NA	NA	NA	NA	NA	NA	NA	NA	NA	NA	1	0	1	0	0	0	0	395	NA	NA	NA	NA	NA	NA	NA	NA	NA	NA	NA	NA	NA	NA	NA	NA	NA	NA	NA	NA	NA	NA	NA	NA	NA	1045.840137500316	['left', 'left', 'left', 'left', 'right']	[8.746564000379294, 10.883078400045633, 15.01255810027942, 16.970831600017846, 18.81044190004468]	BMI	001	2026-03-13_12h45.20.478	SS	2023.1.0	59.92107189326074	NA
[(0, 2), (1, 2), (1, 0), (2, 0), (0, 2), (1, 1), (2, 0), (0, 1), (0, 2), (0, 1)]	NA	NA	NA	NA	NA	NA	NA	NA	NA	NA	NA	NA	NA	NA	NA	NA	NA	NA	NA	NA	NA	NA	NA	NA	NA	NA	NA	NA	NA	NA	NA	NA	1	0	1	0	0	1	1	340	NA	NA	NA	NA	NA	NA	NA	NA	NA	NA	NA	NA	NA	NA	NA	NA	NA	NA	NA	NA	NA	NA	NA	NA	NA	1066.8524054000154	['left', 'left', 'left', 'right']	[10.753556499723345, 13.105632899794728, 15.117037700023502, 16.871229299809784]	BMI	001	2026-03-13_12h45.20.478	SS	2023.1.0	59.92107189326074	NA
[(1, 1), (0, 2), (1, 2), (2, 0), (1, 1), (2, 1), (1, 2), (0, 0), (0, 1), (0, 1)]	NA	NA	NA	NA	NA	NA	NA	NA	NA	NA	NA	NA	NA	NA	NA	NA	NA	NA	NA	NA	NA	NA	NA	NA	NA	NA	NA	NA	NA	NA	NA	NA	1	0	1	0	0	2	2	152	NA	NA	NA	NA	NA	NA	NA	NA	NA	NA	NA	NA	NA	NA	NA	NA	NA	NA	NA	NA	NA	NA	NA	NA	NA	1087.8496541003697	['right', 'left', 'left', 'left', 'left']	[8.87814210029319, 10.723326399922371, 15.08359199995175, 17.02014290029183, 18.73334990022704]	BMI	001	2026-03-13_12h45.20.478	SS	2023.1.0	59.92107189326074	NA
[(2, 0), (0, 0), (0, 0), (1, 2), (2, 0), (2, 2), (0, 0), (1, 0), (1, 1), (1, 2)]	NA	NA	NA	NA	NA	NA	NA	NA	NA	NA	NA	NA	NA	NA	NA	NA	NA	NA	NA	NA	NA	NA	NA	NA	NA	NA	NA	NA	NA	NA	NA	NA	1	0	1	0	0	3	3	617	NA	NA	NA	NA	NA	NA	NA	NA	NA	NA	NA	NA	NA	NA	NA	NA	NA	NA	NA	NA	NA	NA	NA	NA	NA	1108.8319753999822	['right', 'left', 'left', 'left', 'left']	[8.930213999934494, 10.813093699980527, 14.852685800287873, 16.94920950010419, 19.027369200251997]	BMI	001	2026-03-13_12h45.20.478	SS	2023.1.0	59.92107189326074	NA
[(2, 2), (2, 2), (1, 1), (1, 0), (2, 2), (1, 1), (0, 0), (1, 0), (2, 1), (2, 1)]	NA	NA	NA	NA	NA	NA	NA	NA	NA	NA	NA	NA	NA	NA	NA	NA	NA	NA	NA	NA	NA	NA	NA	NA	NA	NA	NA	NA	NA	NA	NA	NA	1	0	1	0	0	4	4	638	NA	NA	NA	NA	NA	NA	NA	NA	NA	NA	NA	NA	NA	NA	NA	NA	NA	NA	NA	NA	NA	NA	NA	NA	NA	1129.8604276999831	['left', 'left', 'right', 'left', 'left']	[10.706573400180787, 13.045950900297612, 14.873194199986756, 16.95813300041482, 18.895217400044203]	BMI	001	2026-03-13_12h45.20.478	SS	2023.1.0	59.92107189326074	NA
[(2, 2), (1, 1), (1, 0), (1, 1), (0, 2), (1, 1), (1, 0), (1, 1), (2, 0), (0, 1)]	NA	NA	NA	NA	NA	NA	NA	NA	NA	NA	NA	NA	NA	NA	NA	NA	NA	NA	NA	NA	NA	NA	NA	NA	NA	NA	NA	NA	NA	NA	NA	NA	1	0	1	0	0	5	5	579	NA	NA	NA	NA	NA	NA	NA	NA	NA	NA	NA	NA	NA	NA	NA	NA	NA	NA	NA	NA	NA	NA	NA	NA	NA	1150.807594000362	['left', 'right', 'left', 'left', 'left']	[8.86061149975285, 11.839725599624217, 13.188730399589986, 16.761381200049073, 18.925174599979073]	BMI	001	2026-03-13_12h45.20.478	SS	2023.1.0	59.92107189326074	NA
NA	NA	NA	NA	NA	NA	NA	NA	NA	NA	NA	NA	NA	NA	NA	NA	NA	NA	NA	NA	NA	NA	NA	NA	NA	NA	NA	NA	NA	NA	NA	NA	NA	1	0	1	0	NA	NA	NA	NA	NA	NA	NA	NA	NA	NA	NA	NA	NA	NA	NA	NA	NA	NA	NA	NA	NA	NA	NA	NA	NA	NA	NA	NA	NA	NA	NA	NA	BMI	001	2026-03-13_12h45.20.478	SS	2023.1.0	59.92107189326074	NA
