imagefile	stimfile	corrAns	MRdir	angle	training.thisRepN	training.thisTrialN	training.thisN	training.thisIndex	mentalrot_trials.thisRepN	mentalrot_trials.thisTrialN	mentalrot_trials.thisN	mentalrot_trials.thisIndex	blank.started	mr_answ_2.started	mr_answ_2.keys	mr_answ_2.corr	mr_answ_2.rt	blank.stopped	mr_answ.started	mr_answ.keys	mr_answ.corr	mr_answ.rt	byebye_text.started	participant	session	date	expName	psychopyVersion	frameRate	...31
mr_images/1_b.png	mr_images/1_b_z_225.png	left	ccw	135	0	0	0	23	NA	NA	NA	NA	112.81596389994957	113.31588379992172	None	0	NA	NA	NA	NA	NA	NA	NA	cio	001	2026-02-13_13h35.10.208	MR	2023.1.0	59.916045653224465	NA
mr_images/9_a.png	mr_images/9_a_z_135.png	left	cw	135	0	1	1	201	NA	NA	NA	NA	118.2153132999083	118.79825909994544	left	1	3.685751600074582	NA	NA	NA	NA	NA	NA	cio	001	2026-02-13_13h35.10.208	MR	2023.1.0	59.916045653224465	NA
mr_images/1_b.png	mr_images/1_a_z_225.png	right	ccw	135	0	2	2	22	NA	NA	NA	NA	122.51470749999862	123.06954519997817	left	0	3.6232151999138296	123.06954519997817	NA	NA	NA	NA	NA	cio	001	2026-02-13_13h35.10.208	MR	2023.1.0	59.916045653224465	NA
mr_images/12_b.png	mr_images/12_a_z_90.png	right	cw	90	0	3	3	64	NA	NA	NA	NA	126.71833439997864	127.31404129997829	left	0	4.535012700012885	127.31404129997829	NA	NA	NA	NA	NA	cio	001	2026-02-13_13h35.10.208	MR	2023.1.0	59.916045653224465	NA
mr_images/5_b.png	mr_images/5_a_z_45.png	right	cw	45	0	4	4	132	NA	NA	NA	NA	131.87999379995745	132.46327859989833	right	1	2.513229800038971	132.46327859989833	NA	NA	NA	NA	NA	cio	001	2026-02-13_13h35.10.208	MR	2023.1.0	59.916045653224465	NA
mr_images/5_b.png	mr_images/5_b_z_45.png	left	cw	45	NA	NA	NA	NA	0	0	0	133	161.8758066999726	NA	NA	NA	NA	NA	162.3758799999487	right	0	3.7401032999623567	NA	cio	001	2026-02-13_13h35.10.208	MR	2023.1.0	59.916045653224465	NA
mr_images/6_a.png	mr_images/6_a_z_90.png	left	cw	90	NA	NA	NA	NA	0	1	1	149	166.1418740999652	NA	NA	NA	NA	166.72517269989476	166.72517269989476	left	1	4.096321900025941	NA	cio	001	2026-02-13_13h35.10.208	MR	2023.1.0	59.916045653224465	NA
mr_images/11_b.png	mr_images/11_b_z_45.png	left	cw	45	NA	NA	NA	NA	0	2	2	37	170.84122849989217	NA	NA	NA	NA	171.42878129996825	171.42878129996825	right	0	3.403574100113474	NA	cio	001	2026-02-13_13h35.10.208	MR	2023.1.0	59.916045653224465	NA
mr_images/7_a.png	mr_images/7_a_z_315.png	left	ccw	45	NA	NA	NA	NA	0	3	3	171	174.86169789999258	NA	NA	NA	NA	175.4406519999029	175.4406519999029	right	0	3.030504700029269	NA	cio	001	2026-02-13_13h35.10.208	MR	2023.1.0	59.916045653224465	NA
mr_images/9_a.png	mr_images/9_b_z_135.png	right	cw	135	NA	NA	NA	NA	0	4	4	200	178.49034079990815	NA	NA	NA	NA	179.06127089995425	179.06127089995425	left	0	3.865972499945201	NA	cio	001	2026-02-13_13h35.10.208	MR	2023.1.0	59.916045653224465	NA
mr_images/9_b.png	mr_images/9_a_z_135.png	right	cw	135	NA	NA	NA	NA	0	5	5	212	182.9438190999208	NA	NA	NA	NA	183.50613819994032	183.50613819994032	right	1	2.6416111999424174	NA	cio	001	2026-02-13_13h35.10.208	MR	2023.1.0	59.916045653224465	NA
mr_images/11_a.png	mr_images/11_b_z_135.png	right	cw	135	NA	NA	NA	NA	0	6	6	32	186.17245199996975	NA	NA	NA	NA	186.75565179996192	186.75565179996192	left	0	2.843634400051087	NA	cio	001	2026-02-13_13h35.10.208	MR	2023.1.0	59.916045653224465	NA
mr_images/6_b.png	mr_images/6_b_z_90.png	left	cw	90	NA	NA	NA	NA	0	7	7	161	189.62200229999144	NA	NA	NA	NA	190.17175009998027	190.17175009998027	right	0	3.4905225000111386	NA	cio	001	2026-02-13_13h35.10.208	MR	2023.1.0	59.916045653224465	NA
mr_images/6_b.png	mr_images/6_b_z_45.png	left	cw	45	NA	NA	NA	NA	0	8	8	157	193.68821649998424	NA	NA	NA	NA	194.2436497999588	194.2436497999588	right	0	3.424540500040166	NA	cio	001	2026-02-13_13h35.10.208	MR	2023.1.0	59.916045653224465	NA
mr_images/4_a.png	mr_images/4_a_z_270.png	left	ccw	90	NA	NA	NA	NA	0	9	9	103	197.69179369998164	NA	NA	NA	NA	198.270508699934	198.270508699934	right	0	2.845196400070563	NA	cio	001	2026-02-13_13h35.10.208	MR	2023.1.0	59.916045653224465	NA
mr_images/6_b.png	mr_images/6_b_z_135.png	left	cw	135	NA	NA	NA	NA	0	10	10	165	201.13695219997317	NA	NA	NA	NA	201.6866687999573	201.6866687999573	right	0	3.3696545000420883	NA	cio	001	2026-02-13_13h35.10.208	MR	2023.1.0	59.916045653224465	NA
mr_images/1_a.png	mr_images/1_a_z_225.png	left	ccw	135	NA	NA	NA	NA	0	11	11	11	205.08669929997995	NA	NA	NA	NA	205.6363696999615	205.6363696999615	left	1	3.388793100020848	NA	cio	001	2026-02-13_13h35.10.208	MR	2023.1.0	59.916045653224465	NA
mr_images/12_b.png	mr_images/12_b_z_135.png	left	cw	135	NA	NA	NA	NA	0	12	12	69	209.0525055999169	NA	NA	NA	NA	209.63598859997	209.63598859997	right	0	4.775237999972887	NA	cio	001	2026-02-13_13h35.10.208	MR	2023.1.0	59.916045653224465	NA
mr_images/3_a.png	mr_images/3_a_z_90.png	left	cw	90	NA	NA	NA	NA	0	13	13	77	214.43531829991844	NA	NA	NA	NA	215.01826259994417	215.01826259994417	right	0	4.607564999954775	NA	cio	001	2026-02-13_13h35.10.208	MR	2023.1.0	59.916045653224465	NA
mr_images/7_b.png	mr_images/7_b_z_135.png	left	cw	135	NA	NA	NA	NA	0	14	14	189	219.65125439991243	NA	NA	NA	NA	220.21852259989828	220.21852259989828	left	1	3.676914799958467	NA	cio	001	2026-02-13_13h35.10.208	MR	2023.1.0	59.916045653224465	NA
mr_images/5_b.png	mr_images/5_b_z_315.png	left	ccw	45	NA	NA	NA	NA	0	15	15	135	223.9174222999718	NA	NA	NA	NA	224.4682479999028	224.4682479999028	left	1	3.585476800100878	NA	cio	001	2026-02-13_13h35.10.208	MR	2023.1.0	59.916045653224465	NA
mr_images/4_b.png	mr_images/4_b_z_315.png	left	ccw	45	NA	NA	NA	NA	0	16	16	111	228.08332419989165	NA	NA	NA	NA	228.6667922999477	228.6667922999477	right	0	2.5366005999967456	NA	cio	001	2026-02-13_13h35.10.208	MR	2023.1.0	59.916045653224465	NA
mr_images/9_b.png	mr_images/9_a_z_45.png	right	cw	45	NA	NA	NA	NA	0	17	17	204	231.2329155999469	NA	NA	NA	NA	231.78316979994997	231.78316979994997	left	0	4.201626800000668	NA	cio	001	2026-02-13_13h35.10.208	MR	2023.1.0	59.916045653224465	NA
mr_images/12_b.png	mr_images/12_b_z_225.png	left	ccw	135	NA	NA	NA	NA	0	18	18	71	236.01566519995689	NA	NA	NA	NA	236.56724469992332	236.56724469992332	left	1	4.29728579998482	NA	cio	001	2026-02-13_13h35.10.208	MR	2023.1.0	59.916045653224465	NA
mr_images/5_a.png	mr_images/5_a_z_135.png	left	cw	135	NA	NA	NA	NA	0	19	19	129	240.88577069994065	NA	NA	NA	NA	241.46735019993503	241.46735019993503	left	1	4.773691099951975	NA	cio	001	2026-02-13_13h35.10.208	MR	2023.1.0	59.916045653224465	NA
mr_images/11_b.png	mr_images/11_b_z_270.png	left	ccw	90	NA	NA	NA	NA	0	20	20	43	246.2683891999768	NA	NA	NA	NA	246.81878129998225	246.81878129998225	None	0	NA	NA	cio	001	2026-02-13_13h35.10.208	MR	2023.1.0	59.916045653224465	NA
mr_images/6_b.png	mr_images/6_a_z_45.png	right	cw	45	NA	NA	NA	NA	0	21	21	156	251.7842558999546	NA	NA	NA	NA	NA	252.3466158999363	left	0	3.205297700013034	NA	cio	001	2026-02-13_13h35.10.208	MR	2023.1.0	59.916045653224465	NA
mr_images/7_b.png	mr_images/7_a_z_90.png	right	cw	90	NA	NA	NA	NA	0	22	22	184	255.57945799990557	NA	NA	NA	NA	256.13589589996263	256.13589589996263	left	0	2.9548103000270203	NA	cio	001	2026-02-13_13h35.10.208	MR	2023.1.0	59.916045653224465	NA
mr_images/12_b.png	mr_images/12_b_z_90.png	left	cw	90	NA	NA	NA	NA	0	23	23	65	259.1165898999898	NA	NA	NA	NA	259.6622370999539	259.6622370999539	left	1	3.5792659000726417	NA	cio	001	2026-02-13_13h35.10.208	MR	2023.1.0	59.916045653224465	NA
mr_images/12_a.png	mr_images/12_a_z_225.png	left	ccw	135	NA	NA	NA	NA	0	24	24	59	263.2618558999384	NA	NA	NA	NA	263.84584969992284	263.84584969992284	left	1	3.917393199983053	NA	cio	001	2026-02-13_13h35.10.208	MR	2023.1.0	59.916045653224465	NA
mr_images/3_b.png	mr_images/3_a_z_135.png	right	cw	135	NA	NA	NA	NA	0	25	25	92	267.7944286999991	NA	NA	NA	NA	268.3944429999683	268.3944429999683	right	1	3.710034399991855	NA	cio	001	2026-02-13_13h35.10.208	MR	2023.1.0	59.916045653224465	NA
mr_images/1_b.png	mr_images/1_b_z_90.png	left	cw	90	NA	NA	NA	NA	0	26	26	17	272.12718939990737	NA	NA	NA	NA	272.6796294999076	272.6796294999076	None	0	NA	NA	cio	001	2026-02-13_13h35.10.208	MR	2023.1.0	59.916045653224465	NA
mr_images/12_a.png	mr_images/12_b_z_45.png	right	cw	45	NA	NA	NA	NA	0	27	27	48	277.6307436999632	NA	NA	NA	NA	NA	278.18256649991963	left	0	3.005913099972531	NA	cio	001	2026-02-13_13h35.10.208	MR	2023.1.0	59.916045653224465	NA
mr_images/6_a.png	mr_images/6_b_z_315.png	right	ccw	45	NA	NA	NA	NA	0	28	28	146	281.2135681998916	NA	NA	NA	NA	281.7757911999943	281.7757911999943	left	0	3.529247700003907	NA	cio	001	2026-02-13_13h35.10.208	MR	2023.1.0	59.916045653224465	NA
mr_images/6_a.png	mr_images/6_b_z_90.png	right	cw	90	NA	NA	NA	NA	0	29	29	148	285.3254941999912	NA	NA	NA	NA	285.8585759999696	285.8585759999696	right	1	3.387330499943346	NA	cio	001	2026-02-13_13h35.10.208	MR	2023.1.0	59.916045653224465	NA
mr_images/7_b.png	mr_images/7_a_z_225.png	right	ccw	135	NA	NA	NA	NA	0	30	30	190	289.27482829999644	NA	NA	NA	NA	289.8262409999734	289.8262409999734	right	1	3.576952199917286	NA	cio	001	2026-02-13_13h35.10.208	MR	2023.1.0	59.916045653224465	NA
mr_images/4_b.png	mr_images/4_a_z_135.png	right	cw	135	NA	NA	NA	NA	0	31	31	116	293.42431879998185	NA	NA	NA	NA	293.9743179999059	293.9743179999059	right	1	2.745978799997829	NA	cio	001	2026-02-13_13h35.10.208	MR	2023.1.0	59.916045653224465	NA
mr_images/4_b.png	mr_images/4_b_z_90.png	left	cw	90	NA	NA	NA	NA	0	32	32	113	296.74043909995817	NA	NA	NA	NA	297.2900794999441	297.2900794999441	right	0	3.11833139997907	NA	cio	001	2026-02-13_13h35.10.208	MR	2023.1.0	59.916045653224465	NA
mr_images/9_b.png	mr_images/9_b_z_90.png	left	cw	90	NA	NA	NA	NA	0	33	33	209	300.4399726999691	NA	NA	NA	NA	301.00647449993994	301.00647449993994	right	0	3.2273688999703154	NA	cio	001	2026-02-13_13h35.10.208	MR	2023.1.0	59.916045653224465	NA
mr_images/6_b.png	mr_images/6_a_z_315.png	right	ccw	45	NA	NA	NA	NA	0	34	34	158	304.25606599997263	NA	NA	NA	NA	304.8227827999508	304.8227827999508	left	0	4.104382899939083	NA	cio	001	2026-02-13_13h35.10.208	MR	2023.1.0	59.916045653224465	NA
mr_images/11_b.png	mr_images/11_b_z_90.png	left	cw	90	NA	NA	NA	NA	0	35	35	41	308.9553861999884	NA	NA	NA	NA	309.522081199917	309.522081199917	right	0	3.467996899969876	NA	cio	001	2026-02-13_13h35.10.208	MR	2023.1.0	59.916045653224465	NA
mr_images/12_a.png	mr_images/12_b_z_225.png	right	ccw	135	NA	NA	NA	NA	0	36	36	58	313.0215852999827	NA	NA	NA	NA	313.5547743999632	313.5547743999632	right	1	4.313967099995352	NA	cio	001	2026-02-13_13h35.10.208	MR	2023.1.0	59.916045653224465	NA
mr_images/9_b.png	mr_images/9_a_z_90.png	right	cw	90	NA	NA	NA	NA	0	37	37	208	317.8875691998983	NA	NA	NA	NA	318.45408809999935	318.45408809999935	left	0	3.3502704000566155	NA	cio	001	2026-02-13_13h35.10.208	MR	2023.1.0	59.916045653224465	NA
mr_images/11_a.png	mr_images/11_a_z_135.png	left	cw	135	NA	NA	NA	NA	0	38	38	33	322.00368490000255	NA	NA	NA	NA	322.5702084999066	322.5702084999066	right	0	2.729787899996154	NA	cio	001	2026-02-13_13h35.10.208	MR	2023.1.0	59.916045653224465	NA
mr_images/12_b.png	mr_images/12_b_z_45.png	left	cw	45	NA	NA	NA	NA	0	39	39	61	325.31987609993666	NA	NA	NA	NA	325.85311859997455	325.85311859997455	right	0	2.7937324999365956	NA	cio	001	2026-02-13_13h35.10.208	MR	2023.1.0	59.916045653224465	NA
mr_images/5_b.png	mr_images/5_a_z_45.png	right	cw	45	NA	NA	NA	NA	0	40	40	132	328.6693934999639	NA	NA	NA	NA	329.2064172999235	329.2064172999235	right	1	3.550699000013992	NA	cio	001	2026-02-13_13h35.10.208	MR	2023.1.0	59.916045653224465	NA
mr_images/11_b.png	mr_images/11_a_z_225.png	right	ccw	135	NA	NA	NA	NA	0	41	41	46	332.7730478999438	NA	NA	NA	NA	333.34127489989623	333.34127489989623	left	0	4.495162099949084	NA	cio	001	2026-02-13_13h35.10.208	MR	2023.1.0	59.916045653224465	NA
mr_images/4_a.png	mr_images/4_b_z_90.png	right	cw	90	NA	NA	NA	NA	0	42	42	100	337.8557188999839	NA	NA	NA	NA	338.38458539999556	338.38458539999556	right	1	2.196637599961832	NA	cio	001	2026-02-13_13h35.10.208	MR	2023.1.0	59.916045653224465	NA
mr_images/3_b.png	mr_images/3_a_z_270.png	right	ccw	90	NA	NA	NA	NA	0	43	43	90	340.60104949993547	NA	NA	NA	NA	341.15586099994835	341.15586099994835	left	0	3.5353922999929637	NA	cio	001	2026-02-13_13h35.10.208	MR	2023.1.0	59.916045653224465	NA
mr_images/7_b.png	mr_images/7_a_z_135.png	right	cw	135	NA	NA	NA	NA	0	44	44	188	344.7213835999137	NA	NA	NA	NA	345.272012499976	345.272012499976	left	0	4.236949500045739	NA	cio	001	2026-02-13_13h35.10.208	MR	2023.1.0	59.916045653224465	NA
mr_images/7_a.png	mr_images/7_a_z_225.png	left	ccw	135	NA	NA	NA	NA	0	45	45	179	349.5374322999269	NA	NA	NA	NA	350.0720679999795	350.0720679999795	right	0	4.432815800071694	NA	cio	001	2026-02-13_13h35.10.208	MR	2023.1.0	59.916045653224465	NA
mr_images/12_b.png	mr_images/12_a_z_90.png	right	cw	90	NA	NA	NA	NA	0	46	46	64	354.53669529990293	NA	NA	NA	NA	355.0653471999103	355.0653471999103	left	0	3.082587100099772	NA	cio	001	2026-02-13_13h35.10.208	MR	2023.1.0	59.916045653224465	NA
mr_images/7_b.png	mr_images/7_b_z_90.png	left	cw	90	NA	NA	NA	NA	0	47	47	185	358.16548169997986	NA	NA	NA	NA	358.71504649997223	358.71504649997223	right	0	3.927301899995655	NA	cio	001	2026-02-13_13h35.10.208	MR	2023.1.0	59.916045653224465	NA
mr_images/4_a.png	mr_images/4_b_z_45.png	right	cw	45	NA	NA	NA	NA	0	48	48	96	362.66466149990447	NA	NA	NA	NA	363.23122849990614	363.23122849990614	left	0	4.181740300031379	NA	cio	001	2026-02-13_13h35.10.208	MR	2023.1.0	59.916045653224465	NA
mr_images/11_b.png	mr_images/11_a_z_45.png	right	cw	45	NA	NA	NA	NA	0	49	49	36	367.430561899906	NA	NA	NA	NA	367.98266439989675	367.98266439989675	left	0	3.853843600023538	NA	cio	001	2026-02-13_13h35.10.208	MR	2023.1.0	59.916045653224465	NA
mr_images/3_a.png	mr_images/3_a_z_225.png	left	ccw	135	NA	NA	NA	NA	0	50	50	83	371.8634501999477	NA	NA	NA	NA	372.42997689999174	372.42997689999174	right	0	3.81611829996109	NA	cio	001	2026-02-13_13h35.10.208	MR	2023.1.0	59.916045653224465	NA
mr_images/12_a.png	mr_images/12_a_z_45.png	left	cw	45	NA	NA	NA	NA	0	51	51	49	376.2627036999911	NA	NA	NA	NA	376.7957526999526	376.7957526999526	None	0	NA	NA	cio	001	2026-02-13_13h35.10.208	MR	2023.1.0	59.916045653224465	NA
mr_images/6_b.png	mr_images/6_b_z_270.png	left	ccw	90	NA	NA	NA	NA	0	52	52	163	381.7786256999243	NA	NA	NA	NA	NA	382.3133857999928	right	0	1.8210606999928132	NA	cio	001	2026-02-13_13h35.10.208	MR	2023.1.0	59.916045653224465	NA
mr_images/7_b.png	mr_images/7_b_z_315.png	left	ccw	45	NA	NA	NA	NA	0	53	53	183	384.1616573999636	NA	NA	NA	NA	384.7114607999101	384.7114607999101	right	0	4.322437199996784	NA	cio	001	2026-02-13_13h35.10.208	MR	2023.1.0	59.916045653224465	NA
mr_images/3_a.png	mr_images/3_a_z_45.png	left	cw	45	NA	NA	NA	NA	0	54	54	73	389.0609884998994	NA	NA	NA	NA	389.6136084999889	389.6136084999889	right	0	3.962816499988549	NA	cio	001	2026-02-13_13h35.10.208	MR	2023.1.0	59.916045653224465	NA
mr_images/3_b.png	mr_images/3_a_z_225.png	right	ccw	135	NA	NA	NA	NA	0	55	55	94	393.597929499927	NA	NA	NA	NA	394.1268798999954	394.1268798999954	left	0	4.19985290011391	NA	cio	001	2026-02-13_13h35.10.208	MR	2023.1.0	59.916045653224465	NA
mr_images/3_a.png	mr_images/3_a_z_135.png	left	cw	135	NA	NA	NA	NA	0	56	56	81	398.34303809993435	NA	NA	NA	NA	398.8762987999944	398.8762987999944	right	0	1.941429099999368	NA	cio	001	2026-02-13_13h35.10.208	MR	2023.1.0	59.916045653224465	NA
mr_images/11_b.png	mr_images/11_b_z_225.png	left	ccw	135	NA	NA	NA	NA	0	57	57	47	400.8426818998996	NA	NA	NA	NA	401.4121424999321	401.4121424999321	left	1	3.853219600045122	NA	cio	001	2026-02-13_13h35.10.208	MR	2023.1.0	59.916045653224465	NA
mr_images/6_a.png	mr_images/6_b_z_270.png	right	ccw	90	NA	NA	NA	NA	0	58	58	150	405.2963871998945	NA	NA	NA	NA	405.82523069996387	405.82523069996387	left	0	2.8034220000263304	NA	cio	001	2026-02-13_13h35.10.208	MR	2023.1.0	59.916045653224465	NA
mr_images/12_b.png	mr_images/12_a_z_135.png	right	cw	135	NA	NA	NA	NA	0	59	59	68	408.6583380999509	NA	NA	NA	NA	409.224850300001	409.224850300001	None	0	NA	NA	cio	001	2026-02-13_13h35.10.208	MR	2023.1.0	59.916045653224465	NA
mr_images/5_b.png	mr_images/5_b_z_90.png	left	cw	90	NA	NA	NA	NA	0	60	60	137	414.1741483999649	NA	NA	NA	NA	NA	414.7265362999169	None	0	NA	NA	cio	001	2026-02-13_13h35.10.208	MR	2023.1.0	59.916045653224465	NA
mr_images/12_b.png	mr_images/12_a_z_270.png	right	ccw	90	NA	NA	NA	NA	0	61	61	66	419.660977399908	NA	NA	NA	NA	NA	420.2122646999778	left	0	3.8312923999037594	NA	cio	001	2026-02-13_13h35.10.208	MR	2023.1.0	59.916045653224465	NA
mr_images/3_b.png	mr_images/3_b_z_90.png	left	cw	90	NA	NA	NA	NA	0	62	62	89	424.0603762998944	NA	NA	NA	NA	424.63943569990806	424.63943569990806	right	0	3.289379399968311	NA	cio	001	2026-02-13_13h35.10.208	MR	2023.1.0	59.916045653224465	NA
mr_images/9_b.png	mr_images/9_a_z_225.png	right	ccw	135	NA	NA	NA	NA	0	63	63	214	427.9555775999325	NA	NA	NA	NA	428.5060219999869	428.5060219999869	None	0	NA	NA	cio	001	2026-02-13_13h35.10.208	MR	2023.1.0	59.916045653224465	NA
mr_images/5_b.png	mr_images/5_a_z_90.png	right	cw	90	NA	NA	NA	NA	0	64	64	136	433.4716381999897	NA	NA	NA	NA	NA	434.0246908999979	right	1	2.260191100067459	NA	cio	001	2026-02-13_13h35.10.208	MR	2023.1.0	59.916045653224465	NA
mr_images/12_a.png	mr_images/12_a_z_90.png	left	cw	90	NA	NA	NA	NA	0	65	65	53	436.3086787998909	NA	NA	NA	NA	436.8374550999142	436.8374550999142	left	1	3.290781700052321	NA	cio	001	2026-02-13_13h35.10.208	MR	2023.1.0	59.916045653224465	NA
mr_images/11_a.png	mr_images/11_b_z_90.png	right	cw	90	NA	NA	NA	NA	0	66	66	28	440.1538495999994	NA	NA	NA	NA	440.6871457999805	440.6871457999805	right	1	3.194447899935767	NA	cio	001	2026-02-13_13h35.10.208	MR	2023.1.0	59.916045653224465	NA
mr_images/3_b.png	mr_images/3_b_z_225.png	left	ccw	135	NA	NA	NA	NA	0	67	67	95	443.9034845998976	NA	NA	NA	NA	444.45641949994024	444.45641949994024	right	0	3.017868799972348	NA	cio	001	2026-02-13_13h35.10.208	MR	2023.1.0	59.916045653224465	NA
mr_images/1_a.png	mr_images/1_b_z_45.png	right	cw	45	NA	NA	NA	NA	0	68	68	0	447.490485599963	NA	NA	NA	NA	448.0554589999374	448.0554589999374	right	1	3.495331099955365	NA	cio	001	2026-02-13_13h35.10.208	MR	2023.1.0	59.916045653224465	NA
mr_images/1_a.png	mr_images/1_a_z_135.png	left	cw	135	NA	NA	NA	NA	0	69	69	9	451.5732014999958	NA	NA	NA	NA	452.1355954000028	452.1355954000028	None	0	NA	NA	cio	001	2026-02-13_13h35.10.208	MR	2023.1.0	59.916045653224465	NA
mr_images/7_b.png	mr_images/7_a_z_270.png	right	ccw	90	NA	NA	NA	NA	0	70	70	186	457.0848486999748	NA	NA	NA	NA	NA	457.6514679999091	left	0	2.865288700093515	NA	cio	001	2026-02-13_13h35.10.208	MR	2023.1.0	59.916045653224465	NA
mr_images/9_a.png	mr_images/9_b_z_45.png	right	cw	45	NA	NA	NA	NA	0	71	71	192	460.5343900999287	NA	NA	NA	NA	461.10099209996406	461.10099209996406	left	0	3.161270699929446	NA	cio	001	2026-02-13_13h35.10.208	MR	2023.1.0	59.916045653224465	NA
mr_images/4_b.png	mr_images/4_a_z_90.png	right	cw	90	NA	NA	NA	NA	0	72	72	112	464.28382519993465	NA	NA	NA	NA	464.83534049999435	464.83534049999435	left	0	3.0258397000143304	NA	cio	001	2026-02-13_13h35.10.208	MR	2023.1.0	59.916045653224465	NA
mr_images/7_a.png	mr_images/7_a_z_270.png	left	ccw	90	NA	NA	NA	NA	0	73	73	175	467.8833951998968	NA	NA	NA	NA	468.4166598999873	468.4166598999873	right	0	3.218176999944262	NA	cio	001	2026-02-13_13h35.10.208	MR	2023.1.0	59.916045653224465	NA
mr_images/4_b.png	mr_images/4_a_z_45.png	right	cw	45	NA	NA	NA	NA	0	74	74	108	471.66648769995663	NA	NA	NA	NA	472.2168485999573	472.2168485999573	left	0	2.6524946000427008	NA	cio	001	2026-02-13_13h35.10.208	MR	2023.1.0	59.916045653224465	NA
mr_images/5_a.png	mr_images/5_b_z_225.png	right	ccw	135	NA	NA	NA	NA	0	75	75	130	474.8991120998981	NA	NA	NA	NA	475.4528481999878	475.4528481999878	left	0	2.8015559000195935	NA	cio	001	2026-02-13_13h35.10.208	MR	2023.1.0	59.916045653224465	NA
mr_images/1_b.png	mr_images/1_b_z_135.png	left	cw	135	NA	NA	NA	NA	0	76	76	21	478.2861789999297	NA	NA	NA	NA	478.8485320999753	478.8485320999753	right	0	3.163882999913767	NA	cio	001	2026-02-13_13h35.10.208	MR	2023.1.0	59.916045653224465	NA
mr_images/1_a.png	mr_images/1_a_z_90.png	left	cw	90	NA	NA	NA	NA	0	77	77	5	482.03139089990873	NA	NA	NA	NA	482.58344249997754	482.58344249997754	right	0	3.6922126000281423	NA	cio	001	2026-02-13_13h35.10.208	MR	2023.1.0	59.916045653224465	NA
mr_images/5_a.png	mr_images/5_a_z_270.png	left	ccw	90	NA	NA	NA	NA	0	78	78	127	486.30173139995895	NA	NA	NA	NA	486.86681889998727	486.86681889998727	right	0	3.352582799969241	NA	cio	001	2026-02-13_13h35.10.208	MR	2023.1.0	59.916045653224465	NA
mr_images/7_a.png	mr_images/7_a_z_90.png	left	cw	90	NA	NA	NA	NA	0	79	79	173	490.2512337999651	NA	NA	NA	NA	NA	490.7968713999726	right	0	2.602116399910301	NA	cio	001	2026-02-13_13h35.10.208	MR	2023.1.0	59.916045653224465	NA
mr_images/3_a.png	mr_images/3_b_z_90.png	right	cw	90	NA	NA	NA	NA	0	80	80	76	493.42982289998326	NA	NA	NA	NA	493.9632341999095	493.9632341999095	left	0	3.4067357999738306	NA	cio	001	2026-02-13_13h35.10.208	MR	2023.1.0	59.916045653224465	NA
mr_images/11_a.png	mr_images/11_b_z_225.png	right	ccw	135	NA	NA	NA	NA	0	81	81	34	497.39604329993017	NA	NA	NA	NA	497.9292596000014	497.9292596000014	left	0	2.5145218999823555	NA	cio	001	2026-02-13_13h35.10.208	MR	2023.1.0	59.916045653224465	NA
mr_images/5_b.png	mr_images/5_b_z_225.png	left	ccw	135	NA	NA	NA	NA	0	82	82	143	500.46226849989034	NA	NA	NA	NA	500.9993663999485	500.9993663999485	right	0	3.7684189999708906	NA	cio	001	2026-02-13_13h35.10.208	MR	2023.1.0	59.916045653224465	NA
mr_images/1_b.png	mr_images/1_a_z_135.png	right	cw	135	NA	NA	NA	NA	0	83	83	20	504.79923679993954	NA	NA	NA	NA	505.32825679995585	505.32825679995585	left	0	2.500388699932955	NA	cio	001	2026-02-13_13h35.10.208	MR	2023.1.0	59.916045653224465	NA
mr_images/6_a.png	mr_images/6_b_z_135.png	right	cw	135	NA	NA	NA	NA	0	84	84	152	507.8611164999893	NA	NA	NA	NA	508.3944239999401	508.3944239999401	left	0	3.372621399932541	NA	cio	001	2026-02-13_13h35.10.208	MR	2023.1.0	59.916045653224465	NA
mr_images/11_b.png	mr_images/11_a_z_270.png	right	ccw	90	NA	NA	NA	NA	0	85	85	42	511.7939353999682	NA	NA	NA	NA	512.3479667999782	512.3479667999782	left	0	3.3710594000294805	NA	cio	001	2026-02-13_13h35.10.208	MR	2023.1.0	59.916045653224465	NA
mr_images/9_b.png	mr_images/9_b_z_270.png	left	ccw	90	NA	NA	NA	NA	0	86	86	211	515.7476163998945	NA	NA	NA	NA	516.3109171999386	516.3109171999386	right	0	3.199792300001718	NA	cio	001	2026-02-13_13h35.10.208	MR	2023.1.0	59.916045653224465	NA
mr_images/3_b.png	mr_images/3_b_z_315.png	left	ccw	45	NA	NA	NA	NA	0	87	87	87	519.5428649999667	NA	NA	NA	NA	520.1094334999798	520.1094334999798	right	0	2.2206951999105513	NA	cio	001	2026-02-13_13h35.10.208	MR	2023.1.0	59.916045653224465	NA
mr_images/7_a.png	mr_images/7_b_z_135.png	right	cw	135	NA	NA	NA	NA	0	88	88	176	522.3591479999013	NA	NA	NA	NA	522.8925201999955	522.8925201999955	left	0	2.5047790000680834	NA	cio	001	2026-02-13_13h35.10.208	MR	2023.1.0	59.916045653224465	NA
mr_images/4_a.png	mr_images/4_a_z_135.png	left	cw	135	NA	NA	NA	NA	0	89	89	105	525.4254645999754	NA	NA	NA	NA	525.9586029999191	525.9586029999191	right	0	1.936955100041814	NA	cio	001	2026-02-13_13h35.10.208	MR	2023.1.0	59.916045653224465	NA
mr_images/9_b.png	mr_images/9_b_z_225.png	left	ccw	135	NA	NA	NA	NA	0	90	90	215	527.9252599999309	NA	NA	NA	NA	528.4916450999444	528.4916450999444	right	0	2.568714899942279	NA	cio	001	2026-02-13_13h35.10.208	MR	2023.1.0	59.916045653224465	NA
mr_images/7_a.png	mr_images/7_b_z_225.png	right	ccw	135	NA	NA	NA	NA	0	91	91	178	531.0913389999187	NA	NA	NA	NA	531.6447917999467	531.6447917999467	left	0	2.134381999960169	NA	cio	001	2026-02-13_13h35.10.208	MR	2023.1.0	59.916045653224465	NA
mr_images/7_b.png	mr_images/7_b_z_45.png	left	cw	45	NA	NA	NA	NA	0	92	92	181	533.7951454999857	NA	NA	NA	NA	534.3586349999532	534.3586349999532	right	0	2.340848899912089	NA	cio	001	2026-02-13_13h35.10.208	MR	2023.1.0	59.916045653224465	NA
mr_images/9_a.png	mr_images/9_a_z_270.png	left	ccw	90	NA	NA	NA	NA	0	93	93	199	536.7237476999871	NA	NA	NA	NA	537.2762548999162	537.2762548999162	right	0	2.7252281000837684	NA	cio	001	2026-02-13_13h35.10.208	MR	2023.1.0	59.916045653224465	NA
mr_images/3_b.png	mr_images/3_a_z_315.png	right	ccw	45	NA	NA	NA	NA	0	94	94	86	540.0276291999035	NA	NA	NA	NA	540.5912433000049	540.5912433000049	left	0	2.7120533999986947	NA	cio	001	2026-02-13_13h35.10.208	MR	2023.1.0	59.916045653224465	NA
mr_images/12_a.png	mr_images/12_b_z_270.png	right	ccw	90	NA	NA	NA	NA	0	95	95	54	543.3229554999853	NA	NA	NA	NA	543.889406299917	543.889406299917	left	0	4.792331200093031	NA	cio	001	2026-02-13_13h35.10.208	MR	2023.1.0	59.916045653224465	NA
mr_images/9_a.png	mr_images/9_a_z_90.png	left	cw	90	NA	NA	NA	NA	0	96	96	197	548.70550739998	NA	NA	NA	NA	549.238723599934	549.238723599934	right	0	2.564494000049308	NA	cio	001	2026-02-13_13h35.10.208	MR	2023.1.0	59.916045653224465	NA
mr_images/1_a.png	mr_images/1_a_z_45.png	left	cw	45	NA	NA	NA	NA	0	97	97	1	551.8217082999181	NA	NA	NA	NA	552.3729951999849	552.3729951999849	right	0	3.7601999000180513	NA	cio	001	2026-02-13_13h35.10.208	MR	2023.1.0	59.916045653224465	NA
mr_images/4_a.png	mr_images/4_b_z_315.png	right	ccw	45	NA	NA	NA	NA	0	98	98	98	556.1544316998916	NA	NA	NA	NA	556.6877068999456	556.6877068999456	left	0	2.6851382999448106	NA	cio	001	2026-02-13_13h35.10.208	MR	2023.1.0	59.916045653224465	NA
mr_images/6_a.png	mr_images/6_b_z_45.png	right	cw	45	NA	NA	NA	NA	0	99	99	144	559.4039752999088	NA	NA	NA	NA	559.9372937999433	559.9372937999433	left	0	2.802689200034365	NA	cio	001	2026-02-13_13h35.10.208	MR	2023.1.0	59.916045653224465	NA
mr_images/3_a.png	mr_images/3_a_z_270.png	left	ccw	90	NA	NA	NA	NA	0	100	100	79	562.757793399971	NA	NA	NA	NA	563.2867471999489	563.2867471999489	right	0	2.303628299967386	NA	cio	001	2026-02-13_13h35.10.208	MR	2023.1.0	59.916045653224465	NA
mr_images/11_a.png	mr_images/11_b_z_315.png	right	ccw	45	NA	NA	NA	NA	0	101	101	26	565.6198074999265	NA	NA	NA	NA	566.1698128998978	566.1698128998978	left	0	3.04401680000592	NA	cio	001	2026-02-13_13h35.10.208	MR	2023.1.0	59.916045653224465	NA
mr_images/4_b.png	mr_images/4_b_z_225.png	left	ccw	135	NA	NA	NA	NA	0	102	102	119	569.235991399968	NA	NA	NA	NA	569.7866931000026	569.7866931000026	right	0	2.8480658000335097	NA	cio	001	2026-02-13_13h35.10.208	MR	2023.1.0	59.916045653224465	NA
mr_images/9_a.png	mr_images/9_a_z_315.png	left	ccw	45	NA	NA	NA	NA	0	103	103	195	572.652168899891	NA	NA	NA	NA	573.2020706000039	573.2020706000039	right	0	3.424400799907744	NA	cio	001	2026-02-13_13h35.10.208	MR	2023.1.0	59.916045653224465	NA
mr_images/5_a.png	mr_images/5_a_z_90.png	left	cw	90	NA	NA	NA	NA	0	104	104	125	576.6516909999773	NA	NA	NA	NA	577.1848355999682	577.1848355999682	right	0	3.2902454999275506	NA	cio	001	2026-02-13_13h35.10.208	MR	2023.1.0	59.916045653224465	NA
mr_images/1_a.png	mr_images/1_b_z_225.png	right	ccw	135	NA	NA	NA	NA	0	105	105	10	580.5011178998975	NA	NA	NA	NA	581.0352610999253	581.0352610999253	right	1	2.7514187999768183	NA	cio	001	2026-02-13_13h35.10.208	MR	2023.1.0	59.916045653224465	NA
mr_images/3_b.png	mr_images/3_a_z_45.png	right	cw	45	NA	NA	NA	NA	0	106	106	84	583.8172789999517	NA	NA	NA	NA	584.3505744999275	584.3505744999275	left	0	2.490393999963999	NA	cio	001	2026-02-13_13h35.10.208	MR	2023.1.0	59.916045653224465	NA
mr_images/4_a.png	mr_images/4_b_z_135.png	right	cw	135	NA	NA	NA	NA	0	107	107	104	586.8668046999956	NA	NA	NA	NA	587.4334596999688	587.4334596999688	left	0	3.179965000017546	NA	cio	001	2026-02-13_13h35.10.208	MR	2023.1.0	59.916045653224465	NA
mr_images/6_b.png	mr_images/6_a_z_90.png	right	cw	90	NA	NA	NA	NA	0	108	108	160	590.6330437998986	NA	NA	NA	NA	591.1662785999943	591.1662785999943	left	0	2.4647457998944446	NA	cio	001	2026-02-13_13h35.10.208	MR	2023.1.0	59.916045653224465	NA
mr_images/5_b.png	mr_images/5_a_z_315.png	right	ccw	45	NA	NA	NA	NA	0	109	109	134	593.6492937000003	NA	NA	NA	NA	594.2157256999053	594.2157256999053	left	0	2.274652000050992	NA	cio	001	2026-02-13_13h35.10.208	MR	2023.1.0	59.916045653224465	NA
mr_images/11_a.png	mr_images/11_b_z_45.png	right	cw	45	NA	NA	NA	NA	0	110	110	24	596.515690799919	NA	NA	NA	NA	597.0528548998991	597.0528548998991	left	0	2.0629929000278935	NA	cio	001	2026-02-13_13h35.10.208	MR	2023.1.0	59.916045653224465	NA
mr_images/9_b.png	mr_images/9_a_z_270.png	right	ccw	90	NA	NA	NA	NA	0	111	111	210	599.1361366999336	NA	NA	NA	NA	599.6650713999989	599.6650713999989	right	1	3.0676856000209227	NA	cio	001	2026-02-13_13h35.10.208	MR	2023.1.0	59.916045653224465	NA
mr_images/12_a.png	mr_images/12_a_z_270.png	left	ccw	90	NA	NA	NA	NA	0	112	112	55	602.7671046999749	NA	NA	NA	NA	NA	603.2978555998998	right	0	3.0421730000525713	NA	cio	001	2026-02-13_13h35.10.208	MR	2023.1.0	59.916045653224465	NA
mr_images/7_a.png	mr_images/7_b_z_315.png	right	ccw	45	NA	NA	NA	NA	0	113	113	170	606.3640911999391	NA	NA	NA	NA	606.8973938999698	606.8973938999698	left	0	2.433732199948281	NA	cio	001	2026-02-13_13h35.10.208	MR	2023.1.0	59.916045653224465	NA
mr_images/7_b.png	mr_images/7_b_z_225.png	left	ccw	135	NA	NA	NA	NA	0	114	114	191	609.3638398000039	NA	NA	NA	NA	609.8970258999616	609.8970258999616	right	0	2.8554420999716967	NA	cio	001	2026-02-13_13h35.10.208	MR	2023.1.0	59.916045653224465	NA
mr_images/4_b.png	mr_images/4_a_z_270.png	right	ccw	90	NA	NA	NA	NA	0	115	115	114	612.7799819998909	NA	NA	NA	NA	613.3298950999742	613.3298950999742	left	0	2.826745100086555	NA	cio	001	2026-02-13_13h35.10.208	MR	2023.1.0	59.916045653224465	NA
mr_images/3_a.png	mr_images/3_a_z_315.png	left	ccw	45	NA	NA	NA	NA	0	116	116	75	616.1795109999366	NA	NA	NA	NA	616.7127213999629	616.7127213999629	right	0	4.014896999928169	NA	cio	001	2026-02-13_13h35.10.208	MR	2023.1.0	59.916045653224465	NA
mr_images/12_b.png	mr_images/12_a_z_225.png	right	ccw	135	NA	NA	NA	NA	0	117	117	70	620.7456703999778	NA	NA	NA	NA	621.2790276999585	621.2790276999585	left	0	2.03976730001159	NA	cio	001	2026-02-13_13h35.10.208	MR	2023.1.0	59.916045653224465	NA
mr_images/12_b.png	mr_images/12_b_z_315.png	left	ccw	45	NA	NA	NA	NA	0	118	118	63	623.3450731999474	NA	NA	NA	NA	623.9119069000008	623.9119069000008	right	0	2.079420999973081	NA	cio	001	2026-02-13_13h35.10.208	MR	2023.1.0	59.916045653224465	NA
mr_images/11_b.png	mr_images/11_b_z_315.png	left	ccw	45	NA	NA	NA	NA	0	119	119	39	626.0113976999419	NA	NA	NA	NA	626.5446972999489	626.5446972999489	right	0	2.30720369995106	NA	cio	001	2026-02-13_13h35.10.208	MR	2023.1.0	59.916045653224465	NA
mr_images/4_a.png	mr_images/4_b_z_270.png	right	ccw	90	NA	NA	NA	NA	0	120	120	102	628.8777676000027	NA	NA	NA	NA	629.431734599988	629.431734599988	left	0	1.809966699918732	NA	cio	001	2026-02-13_13h35.10.208	MR	2023.1.0	59.916045653224465	NA
mr_images/6_b.png	mr_images/6_a_z_135.png	right	cw	135	NA	NA	NA	NA	0	121	121	164	631.2649729999248	NA	NA	NA	NA	631.8283574999077	631.8283574999077	left	0	2.973587700049393	NA	cio	001	2026-02-13_13h35.10.208	MR	2023.1.0	59.916045653224465	NA
mr_images/11_a.png	mr_images/11_a_z_90.png	left	cw	90	NA	NA	NA	NA	0	122	122	29	634.8268410000019	NA	NA	NA	NA	635.3794295999687	635.3794295999687	right	0	4.019835899933241	NA	cio	001	2026-02-13_13h35.10.208	MR	2023.1.0	59.916045653224465	NA
mr_images/1_a.png	mr_images/1_b_z_315.png	right	ccw	45	NA	NA	NA	NA	0	123	123	2	639.4305100999773	NA	NA	NA	NA	639.9950164000038	639.9950164000038	left	0	3.601221999968402	NA	cio	001	2026-02-13_13h35.10.208	MR	2023.1.0	59.916045653224465	NA
mr_images/5_a.png	mr_images/5_a_z_225.png	left	ccw	135	NA	NA	NA	NA	0	124	124	131	643.6256508999504	NA	NA	NA	NA	NA	644.1922157999361	right	0	2.378789399983362	NA	cio	001	2026-02-13_13h35.10.208	MR	2023.1.0	59.916045653224465	NA
mr_images/7_b.png	mr_images/7_a_z_315.png	right	ccw	45	NA	NA	NA	NA	0	125	125	182	646.5918569999048	NA	NA	NA	NA	647.1251729999203	647.1251729999203	left	0	1.7477880000369623	NA	cio	001	2026-02-13_13h35.10.208	MR	2023.1.0	59.916045653224465	NA
mr_images/1_b.png	mr_images/1_b_z_270.png	left	ccw	90	NA	NA	NA	NA	0	126	126	19	648.891705499962	NA	NA	NA	NA	649.4619333998999	649.4619333998999	right	0	2.8464149000355974	NA	cio	001	2026-02-13_13h35.10.208	MR	2023.1.0	59.916045653224465	NA
mr_images/12_a.png	mr_images/12_a_z_135.png	left	cw	135	NA	NA	NA	NA	0	127	127	57	652.3286833999446	NA	NA	NA	NA	652.8576124999672	652.8576124999672	right	0	3.041077699977905	NA	cio	001	2026-02-13_13h35.10.208	MR	2023.1.0	59.916045653224465	NA
mr_images/11_a.png	mr_images/11_a_z_315.png	left	ccw	45	NA	NA	NA	NA	0	128	128	27	655.9239309999393	NA	NA	NA	NA	656.4915041999193	656.4915041999193	right	0	1.9084118000464512	NA	cio	001	2026-02-13_13h35.10.208	MR	2023.1.0	59.916045653224465	NA
mr_images/5_b.png	mr_images/5_a_z_225.png	right	ccw	135	NA	NA	NA	NA	0	129	129	142	658.4235588999	NA	NA	NA	NA	658.9569040999049	658.9569040999049	right	1	4.753569800057448	NA	cio	001	2026-02-13_13h35.10.208	MR	2023.1.0	59.916045653224465	NA
mr_images/12_a.png	mr_images/12_b_z_90.png	right	cw	90	NA	NA	NA	NA	0	130	130	52	663.7395761999069	NA	NA	NA	NA	664.2727163999807	664.2727163999807	left	0	3.370630999910645	NA	cio	001	2026-02-13_13h35.10.208	MR	2023.1.0	59.916045653224465	NA
mr_images/4_b.png	mr_images/4_a_z_315.png	right	ccw	45	NA	NA	NA	NA	0	131	131	110	667.6723036000039	NA	NA	NA	NA	668.2222259999253	668.2222259999253	left	0	2.8379374000942335	NA	cio	001	2026-02-13_13h35.10.208	MR	2023.1.0	59.916045653224465	NA
mr_images/6_a.png	mr_images/6_a_z_315.png	left	ccw	45	NA	NA	NA	NA	0	132	132	147	671.088573899935	NA	NA	NA	NA	671.6384155999403	671.6384155999403	left	1	4.747004700009711	NA	cio	001	2026-02-13_13h35.10.208	MR	2023.1.0	59.916045653224465	NA
mr_images/1_b.png	mr_images/1_b_z_45.png	left	cw	45	NA	NA	NA	NA	0	133	133	13	676.4044965999201	NA	NA	NA	NA	676.9378924999619	676.9378924999619	right	0	4.051464800024405	NA	cio	001	2026-02-13_13h35.10.208	MR	2023.1.0	59.916045653224465	NA
mr_images/3_a.png	mr_images/3_b_z_270.png	right	ccw	90	NA	NA	NA	NA	0	134	134	78	681.0203733999515	NA	NA	NA	NA	681.5701787999133	681.5701787999133	left	0	2.1580165000632405	NA	cio	001	2026-02-13_13h35.10.208	MR	2023.1.0	59.916045653224465	NA
mr_images/9_a.png	mr_images/9_a_z_225.png	left	ccw	135	NA	NA	NA	NA	0	135	135	203	683.7533948998898	NA	NA	NA	NA	684.2866574999643	684.2866574999643	right	0	4.653759399894625	NA	cio	001	2026-02-13_13h35.10.208	MR	2023.1.0	59.916045653224465	NA
mr_images/9_b.png	mr_images/9_b_z_135.png	left	cw	135	NA	NA	NA	NA	0	136	136	213	688.9692965999711	NA	NA	NA	NA	689.519452599925	689.519452599925	right	0	3.7636132000479847	NA	cio	001	2026-02-13_13h35.10.208	MR	2023.1.0	59.916045653224465	NA
mr_images/1_b.png	mr_images/1_a_z_225.png	right	ccw	135	NA	NA	NA	NA	0	137	137	22	693.3020144999027	NA	NA	NA	NA	693.8353692999808	693.8353692999808	left	0	3.172537799924612	NA	cio	001	2026-02-13_13h35.10.208	MR	2023.1.0	59.916045653224465	NA
mr_images/7_b.png	mr_images/7_b_z_270.png	left	ccw	90	NA	NA	NA	NA	0	138	138	187	697.0349196000025	NA	NA	NA	NA	697.6014923999319	697.6014923999319	None	0	NA	NA	cio	001	2026-02-13_13h35.10.208	MR	2023.1.0	59.916045653224465	NA
mr_images/6_a.png	mr_images/6_a_z_45.png	left	cw	45	NA	NA	NA	NA	0	139	139	145	702.550736599951	NA	NA	NA	NA	NA	703.070066299988	right	0	2.4369173999875784	NA	cio	001	2026-02-13_13h35.10.208	MR	2023.1.0	59.916045653224465	NA
mr_images/6_a.png	mr_images/6_b_z_225.png	right	ccw	135	NA	NA	NA	NA	0	140	140	154	705.5380023999605	NA	NA	NA	NA	706.0713927999604	706.0713927999604	left	0	2.490788600058295	NA	cio	001	2026-02-13_13h35.10.208	MR	2023.1.0	59.916045653224465	NA
mr_images/6_a.png	mr_images/6_a_z_135.png	left	cw	135	NA	NA	NA	NA	0	141	141	153	708.5876355998917	NA	NA	NA	NA	709.1175540999975	709.1175540999975	right	0	2.622773200040683	NA	cio	001	2026-02-13_13h35.10.208	MR	2023.1.0	59.916045653224465	NA
mr_images/1_a.png	mr_images/1_b_z_270.png	right	ccw	90	NA	NA	NA	NA	0	142	142	6	711.7663065999513	NA	NA	NA	NA	712.299407399958	712.299407399958	left	0	2.777970499941148	NA	cio	001	2026-02-13_13h35.10.208	MR	2023.1.0	59.916045653224465	NA
mr_images/5_a.png	mr_images/5_b_z_315.png	right	ccw	45	NA	NA	NA	NA	0	143	143	122	715.0990335999522	NA	NA	NA	NA	715.6382459999295	715.6382459999295	left	0	3.042294800048694	NA	cio	001	2026-02-13_13h35.10.208	MR	2023.1.0	59.916045653224465	NA
mr_images/3_a.png	mr_images/3_b_z_135.png	right	cw	135	NA	NA	NA	NA	0	144	144	80	718.7028255999321	NA	NA	NA	NA	719.2818212999264	719.2818212999264	left	0	3.785674099926837	NA	cio	001	2026-02-13_13h35.10.208	MR	2023.1.0	59.916045653224465	NA
mr_images/5_b.png	mr_images/5_a_z_135.png	right	cw	135	NA	NA	NA	NA	0	145	145	140	723.0980110999662	NA	NA	NA	NA	723.6313944999129	723.6313944999129	left	0	2.709038499975577	NA	cio	001	2026-02-13_13h35.10.208	MR	2023.1.0	59.916045653224465	NA
mr_images/3_a.png	mr_images/3_b_z_45.png	right	cw	45	NA	NA	NA	NA	0	146	146	72	726.3641511999303	NA	NA	NA	NA	726.9339245998999	726.9339245998999	left	0	2.6078868000768125	NA	cio	001	2026-02-13_13h35.10.208	MR	2023.1.0	59.916045653224465	NA
mr_images/6_b.png	mr_images/6_b_z_315.png	left	ccw	45	NA	NA	NA	NA	0	147	147	159	729.5679893998895	NA	NA	NA	NA	730.1136232999852	730.1136232999852	right	0	1.3760179000673816	NA	cio	001	2026-02-13_13h35.10.208	MR	2023.1.0	59.916045653224465	NA
mr_images/5_b.png	mr_images/5_a_z_270.png	right	ccw	90	NA	NA	NA	NA	0	148	148	138	731.5136075000046	NA	NA	NA	NA	732.0466792999068	732.0466792999068	left	0	3.952109400066547	NA	cio	001	2026-02-13_13h35.10.208	MR	2023.1.0	59.916045653224465	NA
mr_images/1_a.png	mr_images/1_a_z_270.png	left	ccw	90	NA	NA	NA	NA	0	149	149	7	736.0294607999967	NA	NA	NA	NA	736.596147299977	736.596147299977	right	0	3.84174270008225	NA	cio	001	2026-02-13_13h35.10.208	MR	2023.1.0	59.916045653224465	NA
mr_images/5_a.png	mr_images/5_b_z_270.png	right	ccw	90	NA	NA	NA	NA	0	150	150	126	740.4623855999671	NA	NA	NA	NA	741.0169618999353	741.0169618999353	left	0	2.3220495999557897	NA	cio	001	2026-02-13_13h35.10.208	MR	2023.1.0	59.916045653224465	NA
mr_images/3_b.png	mr_images/3_b_z_270.png	left	ccw	90	NA	NA	NA	NA	0	151	151	91	743.3660513999639	NA	NA	NA	NA	743.8950087999692	743.8950087999692	right	0	2.1200179000152275	NA	cio	001	2026-02-13_13h35.10.208	MR	2023.1.0	59.916045653224465	NA
mr_images/4_a.png	mr_images/4_a_z_225.png	left	ccw	135	NA	NA	NA	NA	0	152	152	107	746.0447947999928	NA	NA	NA	NA	746.6117544999579	746.6117544999579	right	0	3.645752299926244	NA	cio	001	2026-02-13_13h35.10.208	MR	2023.1.0	59.916045653224465	NA
mr_images/9_b.png	mr_images/9_a_z_315.png	right	ccw	45	NA	NA	NA	NA	0	153	153	206	750.277477699914	NA	NA	NA	NA	750.8107002999168	750.8107002999168	left	0	3.3183775999350473	NA	cio	001	2026-02-13_13h35.10.208	MR	2023.1.0	59.916045653224465	NA
mr_images/7_a.png	mr_images/7_b_z_90.png	right	cw	90	NA	NA	NA	NA	0	154	154	172	754.1603969999123	NA	NA	NA	NA	754.6935077999951	754.6935077999951	left	0	3.208509999909438	NA	cio	001	2026-02-13_13h35.10.208	MR	2023.1.0	59.916045653224465	NA
mr_images/4_a.png	mr_images/4_a_z_45.png	left	cw	45	NA	NA	NA	NA	0	155	155	97	757.9265498999739	NA	NA	NA	NA	758.4597046999261	758.4597046999261	right	0	2.191766200005077	NA	cio	001	2026-02-13_13h35.10.208	MR	2023.1.0	59.916045653224465	NA
mr_images/11_a.png	mr_images/11_a_z_270.png	left	ccw	90	NA	NA	NA	NA	0	156	156	31	760.6760929999873	NA	NA	NA	NA	761.2092054999666	761.2092054999666	right	0	3.676254499936476	NA	cio	001	2026-02-13_13h35.10.208	MR	2023.1.0	59.916045653224465	NA
mr_images/5_a.png	mr_images/5_a_z_45.png	left	cw	45	NA	NA	NA	NA	0	157	157	121	764.9088336999994	NA	NA	NA	NA	765.4458779999986	765.4458779999986	right	0	4.436744799953885	NA	cio	001	2026-02-13_13h35.10.208	MR	2023.1.0	59.916045653224465	NA
mr_images/12_b.png	mr_images/12_b_z_270.png	left	ccw	90	NA	NA	NA	NA	0	158	158	67	769.9124263999984	NA	NA	NA	NA	770.4412932998966	770.4412932998966	right	0	4.698206900036894	NA	cio	001	2026-02-13_13h35.10.208	MR	2023.1.0	59.916045653224465	NA
mr_images/11_b.png	mr_images/11_a_z_315.png	right	ccw	45	NA	NA	NA	NA	0	159	159	38	775.1574339999352	NA	NA	NA	NA	775.6906196000054	775.6906196000054	left	0	2.563081400003284	NA	cio	001	2026-02-13_13h35.10.208	MR	2023.1.0	59.916045653224465	NA
mr_images/1_b.png	mr_images/1_a_z_315.png	right	ccw	45	NA	NA	NA	NA	0	160	160	14	778.2737359999446	NA	NA	NA	NA	778.8267430999549	778.8267430999549	left	0	2.8364156000316143	NA	cio	001	2026-02-13_13h35.10.208	MR	2023.1.0	59.916045653224465	NA
mr_images/1_b.png	mr_images/1_a_z_90.png	right	cw	90	NA	NA	NA	NA	0	161	161	16	781.6941026999848	NA	NA	NA	NA	782.2276013999945	782.2276013999945	left	0	3.326494300039485	NA	cio	001	2026-02-13_13h35.10.208	MR	2023.1.0	59.916045653224465	NA
mr_images/9_a.png	mr_images/9_a_z_45.png	left	cw	45	NA	NA	NA	NA	0	162	162	193	785.5768047999591	NA	NA	NA	NA	786.1058475999162	786.1058475999162	right	0	3.780714599997737	NA	cio	001	2026-02-13_13h35.10.208	MR	2023.1.0	59.916045653224465	NA
mr_images/5_b.png	mr_images/5_b_z_135.png	left	cw	135	NA	NA	NA	NA	0	163	163	141	789.9053965999046	NA	NA	NA	NA	790.4617678999202	790.4617678999202	None	0	NA	NA	cio	001	2026-02-13_13h35.10.208	MR	2023.1.0	59.916045653224465	NA
mr_images/9_a.png	mr_images/9_b_z_225.png	right	ccw	135	NA	NA	NA	NA	0	164	164	202	795.4088193998905	NA	NA	NA	NA	NA	795.937612199923	left	0	2.039339300012216	NA	cio	001	2026-02-13_13h35.10.208	MR	2023.1.0	59.916045653224465	NA
mr_images/7_a.png	mr_images/7_b_z_45.png	right	cw	45	NA	NA	NA	NA	0	165	165	168	798.0041367999511	NA	NA	NA	NA	798.5374605999095	798.5374605999095	left	0	1.9086553000379352	NA	cio	001	2026-02-13_13h35.10.208	MR	2023.1.0	59.916045653224465	NA
mr_images/4_b.png	mr_images/4_b_z_270.png	left	ccw	90	NA	NA	NA	NA	0	166	166	115	800.4708689999534	NA	NA	NA	NA	801.0096380999312	801.0096380999312	right	0	2.3295299999881536	NA	cio	001	2026-02-13_13h35.10.208	MR	2023.1.0	59.916045653224465	NA
mr_images/12_a.png	mr_images/12_b_z_315.png	right	ccw	45	NA	NA	NA	NA	0	167	167	50	803.3577401998919	NA	NA	NA	NA	803.9032885999186	803.9032885999186	left	0	3.1760948000010103	NA	cio	001	2026-02-13_13h35.10.208	MR	2023.1.0	59.916045653224465	NA
mr_images/1_a.png	mr_images/1_b_z_90.png	right	cw	90	NA	NA	NA	NA	0	168	168	4	807.1029240998905	NA	NA	NA	NA	807.6361630999018	807.6361630999018	right	1	4.854245899943635	NA	cio	001	2026-02-13_13h35.10.208	MR	2023.1.0	59.916045653224465	NA
mr_images/9_a.png	mr_images/9_b_z_90.png	right	cw	90	NA	NA	NA	NA	0	169	169	196	812.5190877999412	NA	NA	NA	NA	813.068918999983	813.068918999983	left	0	2.406270800041966	NA	cio	001	2026-02-13_13h35.10.208	MR	2023.1.0	59.916045653224465	NA
mr_images/12_b.png	mr_images/12_a_z_45.png	right	cw	45	NA	NA	NA	NA	0	170	170	60	815.5019931999268	NA	NA	NA	NA	816.0350097999908	816.0350097999908	left	0	4.030985799967311	NA	cio	001	2026-02-13_13h35.10.208	MR	2023.1.0	59.916045653224465	NA
mr_images/4_a.png	mr_images/4_a_z_90.png	left	cw	90	NA	NA	NA	NA	0	171	171	101	820.0845176998992	NA	NA	NA	NA	820.6177797999699	820.6177797999699	right	0	1.9171464999672023	NA	cio	001	2026-02-13_13h35.10.208	MR	2023.1.0	59.916045653224465	NA
mr_images/3_b.png	mr_images/3_a_z_90.png	right	cw	90	NA	NA	NA	NA	0	172	172	88	822.5717627999838	NA	NA	NA	NA	823.1173841999844	823.1173841999844	left	0	1.9961637000087649	NA	cio	001	2026-02-13_13h35.10.208	MR	2023.1.0	59.916045653224465	NA
mr_images/9_a.png	mr_images/9_b_z_270.png	right	ccw	90	NA	NA	NA	NA	0	173	173	198	825.1337551999604	NA	NA	NA	NA	825.6670053999405	825.6670053999405	left	0	2.9107428999850526	NA	cio	001	2026-02-13_13h35.10.208	MR	2023.1.0	59.916045653224465	NA
mr_images/6_b.png	mr_images/6_a_z_225.png	right	ccw	135	NA	NA	NA	NA	0	174	174	166	828.5999709999887	NA	NA	NA	NA	829.1665626999456	829.1665626999456	left	0	3.40361669997219	NA	cio	001	2026-02-13_13h35.10.208	MR	2023.1.0	59.916045653224465	NA
mr_images/4_a.png	mr_images/4_a_z_315.png	left	ccw	45	NA	NA	NA	NA	0	175	175	99	832.5993914999999	NA	NA	NA	NA	833.135154599906	833.135154599906	right	0	1.381547199911438	NA	cio	001	2026-02-13_13h35.10.208	MR	2023.1.0	59.916045653224465	NA
mr_images/5_a.png	mr_images/5_a_z_315.png	left	ccw	45	NA	NA	NA	NA	0	176	176	123	834.5366902999813	NA	NA	NA	NA	835.0656090999255	835.0656090999255	right	0	2.110972800059244	NA	cio	001	2026-02-13_13h35.10.208	MR	2023.1.0	59.916045653224465	NA
mr_images/6_b.png	mr_images/6_b_z_225.png	left	ccw	135	NA	NA	NA	NA	0	177	177	167	837.1987743999343	NA	NA	NA	NA	837.7320414999267	837.7320414999267	right	0	2.8365093000466004	NA	cio	001	2026-02-13_13h35.10.208	MR	2023.1.0	59.916045653224465	NA
mr_images/9_a.png	mr_images/9_a_z_135.png	left	cw	135	NA	NA	NA	NA	0	178	178	201	840.5982712999685	NA	NA	NA	NA	841.1351676000049	841.1351676000049	right	0	3.962124800076708	NA	cio	001	2026-02-13_13h35.10.208	MR	2023.1.0	59.916045653224465	NA
mr_images/3_b.png	mr_images/3_b_z_45.png	left	cw	45	NA	NA	NA	NA	0	179	179	85	845.1186416998971	NA	NA	NA	NA	845.664299499942	845.664299499942	right	0	2.48228100000415	NA	cio	001	2026-02-13_13h35.10.208	MR	2023.1.0	59.916045653224465	NA
mr_images/3_b.png	mr_images/3_b_z_135.png	left	cw	135	NA	NA	NA	NA	0	180	180	93	848.1639169999398	NA	NA	NA	NA	848.6990653999383	848.6990653999383	right	0	2.0329521000385284	NA	cio	001	2026-02-13_13h35.10.208	MR	2023.1.0	59.916045653224465	NA
mr_images/1_b.png	mr_images/1_b_z_315.png	left	ccw	45	NA	NA	NA	NA	0	181	181	15	850.7512057999847	NA	NA	NA	NA	851.2968528999481	851.2968528999481	right	0	2.0241457999218255	NA	cio	001	2026-02-13_13h35.10.208	MR	2023.1.0	59.916045653224465	NA
mr_images/6_a.png	mr_images/6_a_z_225.png	left	ccw	135	NA	NA	NA	NA	0	182	182	155	853.3467757999897	NA	NA	NA	NA	853.8799531999975	853.8799531999975	right	0	2.5791297000832856	NA	cio	001	2026-02-13_13h35.10.208	MR	2023.1.0	59.916045653224465	NA
mr_images/7_a.png	mr_images/7_a_z_135.png	left	cw	135	NA	NA	NA	NA	0	183	183	177	856.4794368000003	NA	NA	NA	NA	857.0160608999431	857.0160608999431	right	0	3.4962255000136793	NA	cio	001	2026-02-13_13h35.10.208	MR	2023.1.0	59.916045653224465	NA
mr_images/5_a.png	mr_images/5_b_z_135.png	right	cw	135	NA	NA	NA	NA	0	184	184	128	860.5330974999815	NA	NA	NA	NA	861.0630171999801	861.0630171999801	right	1	3.0655629000393674	NA	cio	001	2026-02-13_13h35.10.208	MR	2023.1.0	59.916045653224465	NA
mr_images/7_a.png	mr_images/7_b_z_270.png	right	ccw	90	NA	NA	NA	NA	0	185	185	174	864.1450124999974	NA	NA	NA	NA	864.678360599908	864.678360599908	right	1	2.7999668000265956	NA	cio	001	2026-02-13_13h35.10.208	MR	2023.1.0	59.916045653224465	NA
mr_images/1_a.png	mr_images/1_a_z_315.png	left	ccw	45	NA	NA	NA	NA	0	186	186	3	867.4945524999639	NA	NA	NA	NA	868.0317744999193	868.0317744999193	right	0	3.087510699988343	NA	cio	001	2026-02-13_13h35.10.208	MR	2023.1.0	59.916045653224465	NA
mr_images/3_a.png	mr_images/3_b_z_225.png	right	ccw	135	NA	NA	NA	NA	0	187	187	82	871.1486137999455	NA	NA	NA	NA	871.6814769000048	871.6814769000048	left	0	2.215936299995519	NA	cio	001	2026-02-13_13h35.10.208	MR	2023.1.0	59.916045653224465	NA
mr_images/11_a.png	mr_images/11_a_z_45.png	left	cw	45	NA	NA	NA	NA	0	188	188	25	873.9146162999095	NA	NA	NA	NA	874.4602938999888	874.4602938999888	right	0	3.893332699895837	NA	cio	001	2026-02-13_13h35.10.208	MR	2023.1.0	59.916045653224465	NA
mr_images/12_b.png	mr_images/12_a_z_315.png	right	ccw	45	NA	NA	NA	NA	0	189	189	62	878.3763954999158	NA	NA	NA	NA	878.9268094999716	878.9268094999716	left	0	2.571393599966541	NA	cio	001	2026-02-13_13h35.10.208	MR	2023.1.0	59.916045653224465	NA
mr_images/6_b.png	mr_images/6_a_z_270.png	right	ccw	90	NA	NA	NA	NA	0	190	190	162	881.5259688999504	NA	NA	NA	NA	882.0925854999805	882.0925854999805	left	0	4.008001900045201	NA	cio	001	2026-02-13_13h35.10.208	MR	2023.1.0	59.916045653224465	NA
mr_images/4_b.png	mr_images/4_b_z_45.png	left	cw	45	NA	NA	NA	NA	0	191	191	109	886.1256786999293	NA	NA	NA	NA	886.6627042999025	886.6627042999025	left	1	3.957440200028941	NA	cio	001	2026-02-13_13h35.10.208	MR	2023.1.0	59.916045653224465	NA
mr_images/11_b.png	mr_images/11_b_z_135.png	left	cw	135	NA	NA	NA	NA	0	192	192	45	890.6456554000033	NA	NA	NA	NA	891.1913073000032	891.1913073000032	right	0	3.225023000035435	NA	cio	001	2026-02-13_13h35.10.208	MR	2023.1.0	59.916045653224465	NA
mr_images/5_b.png	mr_images/5_b_z_270.png	left	ccw	90	NA	NA	NA	NA	0	193	193	139	894.4408809999004	NA	NA	NA	NA	894.9764972999692	894.9764972999692	right	0	2.767254199949093	NA	cio	001	2026-02-13_13h35.10.208	MR	2023.1.0	59.916045653224465	NA
mr_images/4_a.png	mr_images/4_b_z_225.png	right	ccw	135	NA	NA	NA	NA	0	194	194	106	897.7613296998898	NA	NA	NA	NA	898.3069017999806	898.3069017999806	left	0	2.0956824999302626	NA	cio	001	2026-02-13_13h35.10.208	MR	2023.1.0	59.916045653224465	NA
mr_images/11_b.png	mr_images/11_a_z_90.png	right	cw	90	NA	NA	NA	NA	0	195	195	40	900.4233621999156	NA	NA	NA	NA	900.9587645999854	900.9587645999854	right	1	3.3275451000081375	NA	cio	001	2026-02-13_13h35.10.208	MR	2023.1.0	59.916045653224465	NA
mr_images/12_a.png	mr_images/12_b_z_135.png	right	cw	135	NA	NA	NA	NA	0	196	196	56	904.31040019996	NA	NA	NA	NA	904.8393367999232	904.8393367999232	left	0	3.838785200030543	NA	cio	001	2026-02-13_13h35.10.208	MR	2023.1.0	59.916045653224465	NA
mr_images/12_a.png	mr_images/12_a_z_315.png	left	ccw	45	NA	NA	NA	NA	0	197	197	51	908.705548799946	NA	NA	NA	NA	909.2407215998974	909.2407215998974	right	0	2.498984099947847	NA	cio	001	2026-02-13_13h35.10.208	MR	2023.1.0	59.916045653224465	NA
mr_images/11_a.png	mr_images/11_a_z_225.png	left	ccw	135	NA	NA	NA	NA	0	198	198	35	911.7594421999528	NA	NA	NA	NA	912.2882890999316	912.2882890999316	right	0	3.299634200055152	NA	cio	001	2026-02-13_13h35.10.208	MR	2023.1.0	59.916045653224465	NA
mr_images/1_a.png	mr_images/1_b_z_135.png	right	cw	135	NA	NA	NA	NA	0	199	199	8	915.6045558999758	NA	NA	NA	NA	916.137779599987	916.137779599987	right	1	4.081667799968272	NA	cio	001	2026-02-13_13h35.10.208	MR	2023.1.0	59.916045653224465	NA
mr_images/7_b.png	mr_images/7_a_z_45.png	right	cw	45	NA	NA	NA	NA	0	200	200	180	920.2371989999664	NA	NA	NA	NA	920.7883895999984	920.7883895999984	left	0	2.3669519999530166	NA	cio	001	2026-02-13_13h35.10.208	MR	2023.1.0	59.916045653224465	NA
mr_images/6_a.png	mr_images/6_a_z_270.png	left	ccw	90	NA	NA	NA	NA	0	201	201	151	923.1868359999498	NA	NA	NA	NA	923.7200712999328	923.7200712999328	right	0	4.414506400004029	NA	cio	001	2026-02-13_13h35.10.208	MR	2023.1.0	59.916045653224465	NA
mr_images/4_b.png	mr_images/4_a_z_225.png	right	ccw	135	NA	NA	NA	NA	0	202	202	118	928.1528133999092	NA	NA	NA	NA	928.6860447999788	928.6860447999788	left	0	3.5863047000020742	NA	cio	001	2026-02-13_13h35.10.208	MR	2023.1.0	59.916045653224465	NA
mr_images/1_b.png	mr_images/1_a_z_45.png	right	cw	45	NA	NA	NA	NA	0	203	203	12	932.3022857999896	NA	NA	NA	NA	932.8380275999662	932.8380275999662	left	0	2.5537724000168964	NA	cio	001	2026-02-13_13h35.10.208	MR	2023.1.0	59.916045653224465	NA
mr_images/5_a.png	mr_images/5_b_z_90.png	right	cw	90	NA	NA	NA	NA	0	204	204	124	935.4227586999768	NA	NA	NA	NA	935.9685159999644	935.9685159999644	left	0	2.788183699944057	NA	cio	001	2026-02-13_13h35.10.208	MR	2023.1.0	59.916045653224465	NA
mr_images/1_b.png	mr_images/1_b_z_225.png	left	ccw	135	NA	NA	NA	NA	0	205	205	23	938.7846645999234	NA	NA	NA	NA	939.3235616999444	939.3235616999444	right	0	4.606425200006925	NA	cio	001	2026-02-13_13h35.10.208	MR	2023.1.0	59.916045653224465	NA
mr_images/5_a.png	mr_images/5_b_z_45.png	right	cw	45	NA	NA	NA	NA	0	206	206	120	943.9549404999708	NA	NA	NA	NA	944.5007287999616	944.5007287999616	left	0	2.0211907000048086	NA	cio	001	2026-02-13_13h35.10.208	MR	2023.1.0	59.916045653224465	NA
mr_images/7_a.png	mr_images/7_a_z_45.png	left	cw	45	NA	NA	NA	NA	0	207	207	169	946.5502655999736	NA	NA	NA	NA	947.0834642999108	947.0834642999108	right	0	2.9022906000027433	NA	cio	001	2026-02-13_13h35.10.208	MR	2023.1.0	59.916045653224465	NA
mr_images/4_b.png	mr_images/4_b_z_135.png	left	cw	135	NA	NA	NA	NA	0	208	208	117	950.0164700999158	NA	NA	NA	NA	950.5496563999914	950.5496563999914	right	0	1.8595772999105975	NA	cio	001	2026-02-13_13h35.10.208	MR	2023.1.0	59.916045653224465	NA
mr_images/9_a.png	mr_images/9_b_z_315.png	right	ccw	45	NA	NA	NA	NA	0	209	209	194	952.4360432999674	NA	NA	NA	NA	952.9882566999876	952.9882566999876	left	0	2.7326939000049606	NA	cio	001	2026-02-13_13h35.10.208	MR	2023.1.0	59.916045653224465	NA
mr_images/11_b.png	mr_images/11_a_z_135.png	right	cw	135	NA	NA	NA	NA	0	210	210	44	955.7367524999428	NA	NA	NA	NA	956.2655346998944	956.2655346998944	right	1	3.885054500075057	NA	cio	001	2026-02-13_13h35.10.208	MR	2023.1.0	59.916045653224465	NA
mr_images/9_b.png	mr_images/9_b_z_315.png	left	ccw	45	NA	NA	NA	NA	0	211	211	207	960.1841953999829	NA	NA	NA	NA	NA	960.7316822999856	right	0	2.835074399947189	NA	cio	001	2026-02-13_13h35.10.208	MR	2023.1.0	59.916045653224465	NA
mr_images/11_a.png	mr_images/11_b_z_270.png	right	ccw	90	NA	NA	NA	NA	0	212	212	30	963.597871899954	NA	NA	NA	NA	964.1312354999828	964.1312354999828	left	0	2.1706737000495195	NA	cio	001	2026-02-13_13h35.10.208	MR	2023.1.0	59.916045653224465	NA
mr_images/3_a.png	mr_images/3_b_z_315.png	right	ccw	45	NA	NA	NA	NA	0	213	213	74	966.3309278999222	NA	NA	NA	NA	966.8640092998976	966.8640092998976	left	0	2.49698840000201	NA	cio	001	2026-02-13_13h35.10.208	MR	2023.1.0	59.916045653224465	NA
mr_images/1_b.png	mr_images/1_a_z_270.png	right	ccw	90	NA	NA	NA	NA	0	214	214	18	969.3803733999376	NA	NA	NA	NA	969.9137146999128	969.9137146999128	left	0	2.9425594999920577	NA	cio	001	2026-02-13_13h35.10.208	MR	2023.1.0	59.916045653224465	NA
mr_images/9_b.png	mr_images/9_b_z_45.png	left	cw	45	NA	NA	NA	NA	0	215	215	205	972.8799100999022	NA	NA	NA	NA	973.4131350999232	973.4131350999232	left	1	4.209987499983981	NA	cio	001	2026-02-13_13h35.10.208	MR	2023.1.0	59.916045653224465	NA
NA	NA	NA	NA	NA	NA	NA	NA	NA	NA	NA	NA	NA	NA	NA	NA	NA	NA	NA	NA	NA	NA	NA	977.6793565999252	NA	NA	NA	NA	NA	NA	NA
