sequence	training_session.thisRepN	training_session.thisTrialN	training_session.thisN	training_session.thisIndex	training_2n.thisRepN	training_2n.thisTrialN	training_2n.thisN	training_2n.thisIndex	training_3n.thisRepN	training_3n.thisTrialN	training_3n.thisN	training_3n.thisIndex	training_4n.thisRepN	training_4n.thisTrialN	training_4n.thisN	training_4n.thisIndex	allrep_2nback.thisRepN	allrep_2nback.thisTrialN	allrep_2nback.thisN	allrep_2nback.thisIndex	trials_2nback.thisRepN	trials_2nback.thisTrialN	trials_2nback.thisN	trials_2nback.thisIndex	allrep_3nback.thisRepN	allrep_3nback.thisTrialN	allrep_3nback.thisN	allrep_3nback.thisIndex	trials_3nback.thisRepN	trials_3nback.thisTrialN	trials_3nback.thisN	trials_3nback.thisIndex	allrep_4nback.thisRepN	allrep_4nback.thisTrialN	allrep_4nback.thisN	allrep_4nback.thisIndex	trials_4nback.thisRepN	trials_4nback.thisTrialN	trials_4nback.thisN	trials_4nback.thisIndex	buffer02_txt.started	test_griddot_resp2.started	test_griddot_resp2.keys	test_griddot_resp2.rt	buffer23_txt.started	test_griddot_resp3.started	test_griddot_resp3.keys	test_griddot_resp3.rt	buffer34_txt.started	test_griddot_resp4.started	test_griddot_resp4.keys	test_griddot_resp4.rt	confirm_resp.started	confirm_resp.keys	confirm_resp.rt	instr_text_2.started	buffer02_txt.stopped	griddot_resp2.started	griddot_resp2.keys	griddot_resp2.rt	buffer23_txt.stopped	griddot_resp3.started	griddot_resp3.keys	griddot_resp3.rt	buffer34_txt.stopped	griddot_resp4.started	griddot_resp4.keys	griddot_resp4.rt	participant	session	date	expName	psychopyVersion	frameRate	...76
[(1, 2), (2, 2), (1, 2), (0, 2), (0, 1), (1, 2), (0, 1), (1, 1)]	0	0	0	0	0	0	0	669	NA	NA	NA	NA	NA	NA	NA	NA	NA	NA	NA	NA	NA	NA	NA	NA	NA	NA	NA	NA	NA	NA	NA	NA	NA	NA	NA	NA	NA	NA	NA	NA	412.68235089990776	416.81474279996473	['right']	[5.284798599896021]	NA	NA	NA	NA	NA	NA	NA	NA	NA	NA	NA	NA	NA	NA	NA	NA	NA	NA	NA	NA	NA	NA	NA	NA	cio	001	2026-02-13_12h34.05.556	SS	2023.1.0	60.02033486262189	NA
[(0, 2), (0, 0), (0, 1), (2, 2), (0, 0), (0, 1), (0, 0), (0, 1)]	0	0	0	0	0	1	1	389	NA	NA	NA	NA	NA	NA	NA	NA	NA	NA	NA	NA	NA	NA	NA	NA	NA	NA	NA	NA	NA	NA	NA	NA	NA	NA	NA	NA	NA	NA	NA	NA	NA	433.7332942999201	['left', 'right', 'left']	[5.058957500034012, 9.705049199983478, 13.003899100003764]	NA	NA	NA	NA	NA	NA	NA	NA	NA	NA	NA	NA	NA	NA	NA	NA	NA	NA	NA	NA	NA	NA	NA	NA	cio	001	2026-02-13_12h34.05.556	SS	2023.1.0	60.02033486262189	NA
[(0, 2), (2, 1), (0, 2), (2, 2), (1, 0), (1, 1), (1, 0), (1, 2)]	0	0	0	0	0	2	2	524	NA	NA	NA	NA	NA	NA	NA	NA	NA	NA	NA	NA	NA	NA	NA	NA	NA	NA	NA	NA	NA	NA	NA	NA	NA	NA	NA	NA	NA	NA	NA	NA	NA	450.7103320999304	['right', 'left', 'left', 'left', 'right', 'left']	[4.934212499996647, 7.912487499997951, 10.273026199894957, 11.622881299932487, 13.080719799967483, 15.314930799882859]	NA	NA	NA	NA	NA	NA	NA	NA	NA	NA	NA	NA	NA	NA	NA	NA	NA	NA	NA	NA	NA	NA	NA	NA	cio	001	2026-02-13_12h34.05.556	SS	2023.1.0	60.02033486262189	NA
[(2, 1), (1, 0), (1, 2), (2, 0), (0, 1), (1, 1), (2, 0), (0, 1), (0, 2)]	0	0	0	0	NA	NA	NA	NA	0	0	0	137	NA	NA	NA	NA	NA	NA	NA	NA	NA	NA	NA	NA	NA	NA	NA	NA	NA	NA	NA	NA	NA	NA	NA	NA	NA	NA	NA	NA	NA	NA	NA	NA	467.6745652999962	471.74077759997454	['left', 'left', 'left', 'left', 'right', 'right']	[7.357495500007644, 9.416150400065817, 11.621318900026381, 14.150372700067237, 15.41989190003369, 17.763226800016128]	NA	NA	NA	NA	NA	NA	NA	NA	NA	NA	NA	NA	NA	NA	NA	NA	NA	NA	NA	NA	cio	001	2026-02-13_12h34.05.556	SS	2023.1.0	60.02033486262189	NA
[(1, 2), (0, 1), (0, 0), (2, 2), (0, 1), (0, 0), (2, 0), (2, 1), (1, 2)]	0	0	0	0	NA	NA	NA	NA	0	1	1	436	NA	NA	NA	NA	NA	NA	NA	NA	NA	NA	NA	NA	NA	NA	NA	NA	NA	NA	NA	NA	NA	NA	NA	NA	NA	NA	NA	NA	NA	NA	NA	NA	NA	490.738123399904	['left', 'right', 'left', 'left', 'right']	[9.971631399937905, 11.357991099939682, 13.596016300027259, 15.506618799990974, 17.475445799995214]	NA	NA	NA	NA	NA	NA	NA	NA	NA	NA	NA	NA	NA	NA	NA	NA	NA	NA	NA	NA	cio	001	2026-02-13_12h34.05.556	SS	2023.1.0	60.02033486262189	NA
[(0, 1), (0, 1), (1, 2), (0, 1), (0, 0), (0, 1), (0, 0), (2, 1), (0, 1)]	0	0	0	0	NA	NA	NA	NA	0	2	2	182	NA	NA	NA	NA	NA	NA	NA	NA	NA	NA	NA	NA	NA	NA	NA	NA	NA	NA	NA	NA	NA	NA	NA	NA	NA	NA	NA	NA	NA	NA	NA	NA	NA	509.72213139990345	['right', 'left', 'left', 'right', 'right']	[6.983044599997811, 10.771306400070898, 12.877043300075457, 14.754030600073747, 17.699743499979377]	NA	NA	NA	NA	NA	NA	NA	NA	NA	NA	NA	NA	NA	NA	NA	NA	NA	NA	NA	NA	cio	001	2026-02-13_12h34.05.556	SS	2023.1.0	60.02033486262189	NA
[(0, 1), (0, 1), (1, 0), (2, 2), (2, 1), (2, 2), (1, 0), (1, 0), (0, 1), (2, 2)]	0	0	0	0	NA	NA	NA	NA	NA	NA	NA	NA	0	0	0	508	NA	NA	NA	NA	NA	NA	NA	NA	NA	NA	NA	NA	NA	NA	NA	NA	NA	NA	NA	NA	NA	NA	NA	NA	NA	NA	NA	NA	NA	NA	NA	NA	528.6705914000049	532.7354337999132	['left', 'left', 'right', 'left', 'right', 'left']	[9.270465400069952, 11.746756699983962, 12.96309510001447, 16.42071900004521, 17.839490100042894, 19.10370440001134]	NA	NA	NA	NA	NA	NA	NA	NA	NA	NA	NA	NA	NA	NA	NA	NA	cio	001	2026-02-13_12h34.05.556	SS	2023.1.0	60.02033486262189	NA
[(0, 0), (1, 0), (0, 2), (0, 0), (2, 0), (1, 0), (0, 1), (0, 0), (2, 0), (1, 1)]	0	0	0	0	NA	NA	NA	NA	NA	NA	NA	NA	0	1	1	160	NA	NA	NA	NA	NA	NA	NA	NA	NA	NA	NA	NA	NA	NA	NA	NA	NA	NA	NA	NA	NA	NA	NA	NA	NA	NA	NA	NA	NA	NA	NA	NA	NA	553.7460211999714	['left', 'right', 'right', 'right', 'left', 'left']	[9.077754100086167, 11.923744300031103, 13.9295227000257, 15.354114199988544, 17.54587250004988, 19.53615619998891]	NA	NA	NA	NA	NA	NA	NA	NA	NA	NA	NA	NA	NA	NA	NA	NA	cio	001	2026-02-13_12h34.05.556	SS	2023.1.0	60.02033486262189	NA
[(1, 2), (2, 1), (2, 1), (2, 1), (0, 2), (2, 1), (2, 2), (0, 1), (0, 2), (2, 1)]	0	0	0	0	NA	NA	NA	NA	NA	NA	NA	NA	0	2	2	522	NA	NA	NA	NA	NA	NA	NA	NA	NA	NA	NA	NA	NA	NA	NA	NA	NA	NA	NA	NA	NA	NA	NA	NA	NA	NA	NA	NA	NA	NA	NA	NA	NA	574.7431737999432	['left', 'right', 'left', 'left', 'left', 'right']	[8.883827800047584, 10.824122500023805, 13.424266600050032, 15.926433900021948, 17.295969500089996, 19.162659300025553]	NA	NA	NA	NA	NA	NA	NA	NA	NA	NA	NA	NA	NA	NA	NA	NA	cio	001	2026-02-13_12h34.05.556	SS	2023.1.0	60.02033486262189	NA
NA	0	0	0	0	NA	NA	NA	NA	NA	NA	NA	NA	NA	NA	NA	NA	NA	NA	NA	NA	NA	NA	NA	NA	NA	NA	NA	NA	NA	NA	NA	NA	NA	NA	NA	NA	NA	NA	NA	NA	NA	NA	NA	NA	NA	NA	NA	NA	NA	NA	NA	NA	594.6736914999783	y	48.51321620005183	NA	NA	NA	NA	NA	NA	NA	NA	NA	NA	NA	NA	NA	cio	001	2026-02-13_12h34.05.556	SS	2023.1.0	60.02033486262189	NA
[(0, 2), (2, 2), (1, 1), (1, 1), (0, 1), (1, 1), (1, 0), (1, 1)]	NA	NA	NA	NA	NA	NA	NA	NA	NA	NA	NA	NA	NA	NA	NA	NA	0	0	0	0	0	0	0	613	NA	NA	NA	NA	NA	NA	NA	NA	NA	NA	NA	NA	NA	NA	NA	NA	691.7934726999374	NA	NA	NA	NA	NA	NA	NA	NA	NA	NA	NA	NA	NA	NA	643.2169259999646	694.8761495999061	695.8633164999774	['left', 'left', 'left', 'left', 'left', 'right']	[5.355377599946223, 6.902229700004682, 10.130083099938929, 11.76025239995215, 13.948451699921861, 14.9559952999698]	NA	NA	NA	NA	NA	NA	NA	NA	cio	001	2026-02-13_12h34.05.556	SS	2023.1.0	60.02033486262189	NA
[(2, 2), (1, 1), (2, 2), (2, 0), (2, 2), (2, 1), (0, 0), (1, 2)]	NA	NA	NA	NA	NA	NA	NA	NA	NA	NA	NA	NA	NA	NA	NA	NA	0	0	0	0	0	1	1	497	NA	NA	NA	NA	NA	NA	NA	NA	NA	NA	NA	NA	NA	NA	NA	NA	NA	NA	NA	NA	NA	NA	NA	NA	NA	NA	NA	NA	NA	NA	NA	NA	NA	712.8739921000088	['right', 'left', 'left', 'left', 'left', 'right']	[4.967867500032298, 7.154568800004199, 9.840309699997306, 11.524567799991928, 12.832946100039408, 15.004706499981694]	NA	NA	NA	NA	NA	NA	NA	NA	cio	001	2026-02-13_12h34.05.556	SS	2023.1.0	60.02033486262189	NA
[(1, 2), (2, 2), (1, 0), (1, 2), (0, 1), (2, 0), (0, 1), (2, 0)]	NA	NA	NA	NA	NA	NA	NA	NA	NA	NA	NA	NA	NA	NA	NA	NA	0	0	0	0	0	2	2	692	NA	NA	NA	NA	NA	NA	NA	NA	NA	NA	NA	NA	NA	NA	NA	NA	NA	NA	NA	NA	NA	NA	NA	NA	NA	NA	NA	NA	NA	NA	NA	NA	NA	729.8715352999279	['left', 'right', 'left', 'left', 'right', 'right']	[5.227573300013319, 7.101968499948271, 8.847465500002727, 11.244061699951999, 12.855302999960259, 15.35565099993255]	NA	NA	NA	NA	NA	NA	NA	NA	cio	001	2026-02-13_12h34.05.556	SS	2023.1.0	60.02033486262189	NA
[(1, 0), (1, 0), (1, 1), (0, 1), (2, 2), (0, 1), (0, 2), (0, 1)]	NA	NA	NA	NA	NA	NA	NA	NA	NA	NA	NA	NA	NA	NA	NA	NA	0	0	0	0	0	3	3	455	NA	NA	NA	NA	NA	NA	NA	NA	NA	NA	NA	NA	NA	NA	NA	NA	NA	NA	NA	NA	NA	NA	NA	NA	NA	NA	NA	NA	NA	NA	NA	NA	NA	746.8527280999115	['left', 'left', 'left', 'right', 'left', 'right']	[4.8886116000358015, 7.783303000032902, 8.995548699982464, 10.914397299988195, 12.942652099998668, 15.332172600086778]	NA	NA	NA	NA	NA	NA	NA	NA	cio	001	2026-02-13_12h34.05.556	SS	2023.1.0	60.02033486262189	NA
[(0, 1), (2, 0), (0, 0), (2, 0), (1, 0), (2, 0), (0, 0), (1, 1)]	NA	NA	NA	NA	NA	NA	NA	NA	NA	NA	NA	NA	NA	NA	NA	NA	0	0	0	0	0	4	4	340	NA	NA	NA	NA	NA	NA	NA	NA	NA	NA	NA	NA	NA	NA	NA	NA	NA	NA	NA	NA	NA	NA	NA	NA	NA	NA	NA	NA	NA	NA	NA	NA	NA	763.8668208000017	['left', 'left', 'right', 'left', 'left', 'left', 'left']	[5.336193099967204, 8.19383550004568, 8.75695569999516, 9.842300100019202, 11.557391699985601, 13.644021300016902, 15.240339700016193]	NA	NA	NA	NA	NA	NA	NA	NA	cio	001	2026-02-13_12h34.05.556	SS	2023.1.0	60.02033486262189	NA
[(0, 1), (2, 1), (2, 2), (2, 1), (1, 2), (1, 2), (2, 0), (1, 2)]	NA	NA	NA	NA	NA	NA	NA	NA	NA	NA	NA	NA	NA	NA	NA	NA	0	0	0	0	0	5	5	520	NA	NA	NA	NA	NA	NA	NA	NA	NA	NA	NA	NA	NA	NA	NA	NA	NA	NA	NA	NA	NA	NA	NA	NA	NA	NA	NA	NA	NA	NA	NA	NA	NA	780.8514068999793	['left', 'right', 'left', 'right', 'left', 'right']	[4.832936199964024, 7.059028999996372, 9.064184199902229, 11.084421699983068, 13.757533699972555, 14.713908699923195]	NA	NA	NA	NA	NA	NA	NA	NA	cio	001	2026-02-13_12h34.05.556	SS	2023.1.0	60.02033486262189	NA
NA	NA	NA	NA	NA	NA	NA	NA	NA	NA	NA	NA	NA	NA	NA	NA	NA	0	0	0	0	NA	NA	NA	NA	NA	NA	NA	NA	NA	NA	NA	NA	NA	NA	NA	NA	NA	NA	NA	NA	NA	NA	NA	NA	NA	NA	NA	NA	NA	NA	NA	NA	NA	NA	NA	NA	NA	NA	NA	NA	NA	NA	NA	NA	NA	NA	NA	NA	cio	001	2026-02-13_12h34.05.556	SS	2023.1.0	60.02033486262189	NA
[(2, 2), (0, 0), (1, 2), (0, 0), (2, 0), (0, 0), (1, 2), (2, 1)]	NA	NA	NA	NA	NA	NA	NA	NA	NA	NA	NA	NA	NA	NA	NA	NA	1	0	1	0	0	0	0	386	NA	NA	NA	NA	NA	NA	NA	NA	NA	NA	NA	NA	NA	NA	NA	NA	NA	NA	NA	NA	NA	NA	NA	NA	NA	NA	NA	NA	NA	NA	NA	NA	NA	801.7449960999656	['left', 'right', 'left', 'left', 'right', 'left']	[5.175691099953838, 6.728811500011943, 8.842578199924901, 11.899503899971023, 14.288744999910705, 15.286955199902877]	NA	NA	NA	NA	NA	NA	NA	NA	cio	001	2026-02-13_12h34.05.556	SS	2023.1.0	60.02033486262189	NA
[(2, 1), (0, 0), (0, 0), (1, 0), (0, 0), (1, 0), (0, 2), (2, 2)]	NA	NA	NA	NA	NA	NA	NA	NA	NA	NA	NA	NA	NA	NA	NA	NA	1	0	1	0	0	1	1	344	NA	NA	NA	NA	NA	NA	NA	NA	NA	NA	NA	NA	NA	NA	NA	NA	NA	NA	NA	NA	NA	NA	NA	NA	NA	NA	NA	NA	NA	NA	NA	NA	NA	818.7302629000042	['left', 'left', 'right', 'right', 'left', 'left']	[5.604277400067076, 6.897173800040036, 10.116066100075841, 10.824102199985646, 13.986367500037886, 15.079462000052445]	NA	NA	NA	NA	NA	NA	NA	NA	cio	001	2026-02-13_12h34.05.556	SS	2023.1.0	60.02033486262189	NA
[(1, 0), (1, 0), (1, 0), (1, 0), (2, 1), (1, 1), (0, 0), (2, 0)]	NA	NA	NA	NA	NA	NA	NA	NA	NA	NA	NA	NA	NA	NA	NA	NA	1	0	1	0	0	2	2	96	NA	NA	NA	NA	NA	NA	NA	NA	NA	NA	NA	NA	NA	NA	NA	NA	NA	NA	NA	NA	NA	NA	NA	NA	NA	NA	NA	NA	NA	NA	NA	NA	NA	835.7401649999665	['right', 'right', 'left', 'left', 'left', 'left']	[5.194424099987373, 7.083519499981776, 9.583949099993333, 11.501554999966174, 12.957717699930072, 15.226980699924752]	NA	NA	NA	NA	NA	NA	NA	NA	cio	001	2026-02-13_12h34.05.556	SS	2023.1.0	60.02033486262189	NA
[(2, 1), (2, 2), (2, 2), (2, 2), (0, 1), (1, 1), (0, 1), (1, 2)]	NA	NA	NA	NA	NA	NA	NA	NA	NA	NA	NA	NA	NA	NA	NA	NA	1	0	1	0	0	3	3	427	NA	NA	NA	NA	NA	NA	NA	NA	NA	NA	NA	NA	NA	NA	NA	NA	NA	NA	NA	NA	NA	NA	NA	NA	NA	NA	NA	NA	NA	NA	NA	NA	NA	852.7545910999179	['left', 'right', 'left', 'right', 'left', 'left']	[5.068974400055595, 6.906548700062558, 9.38084080000408, 11.371267499984242, 13.587538800085895, 15.527159200049937]	NA	NA	NA	NA	NA	NA	NA	NA	cio	001	2026-02-13_12h34.05.556	SS	2023.1.0	60.02033486262189	NA
[(2, 2), (2, 1), (1, 2), (2, 1), (0, 1), (2, 1), (0, 0), (2, 2)]	NA	NA	NA	NA	NA	NA	NA	NA	NA	NA	NA	NA	NA	NA	NA	NA	1	0	1	0	0	4	4	560	NA	NA	NA	NA	NA	NA	NA	NA	NA	NA	NA	NA	NA	NA	NA	NA	NA	NA	NA	NA	NA	NA	NA	NA	NA	NA	NA	NA	NA	NA	NA	NA	NA	869.7354492999148	['left', 'right', 'left', 'left', 'left', 'left']	[5.217289500054903, 8.047736100037582, 8.923368299962021, 11.235096200020052, 13.705561200040393, 15.066596899996512]	NA	NA	NA	NA	NA	NA	NA	NA	cio	001	2026-02-13_12h34.05.556	SS	2023.1.0	60.02033486262189	NA
[(1, 0), (2, 1), (1, 0), (1, 0), (1, 0), (2, 0), (2, 2), (1, 2)]	NA	NA	NA	NA	NA	NA	NA	NA	NA	NA	NA	NA	NA	NA	NA	NA	1	0	1	0	0	5	5	293	NA	NA	NA	NA	NA	NA	NA	NA	NA	NA	NA	NA	NA	NA	NA	NA	NA	NA	NA	NA	NA	NA	NA	NA	NA	NA	NA	NA	NA	NA	NA	NA	NA	886.7332447000081	['right', 'left', 'right', 'left', 'left', 'left']	[5.204230000032112, 7.220406700042076, 9.88636680005584, 10.746955999988131, 13.35255780001171, 15.435595400049351]	NA	NA	NA	NA	NA	NA	NA	NA	cio	001	2026-02-13_12h34.05.556	SS	2023.1.0	60.02033486262189	NA
NA	NA	NA	NA	NA	NA	NA	NA	NA	NA	NA	NA	NA	NA	NA	NA	NA	1	0	1	0	NA	NA	NA	NA	NA	NA	NA	NA	NA	NA	NA	NA	NA	NA	NA	NA	NA	NA	NA	NA	NA	NA	NA	NA	NA	NA	NA	NA	NA	NA	NA	NA	NA	NA	NA	NA	NA	NA	NA	NA	NA	NA	NA	NA	NA	NA	NA	NA	cio	001	2026-02-13_12h34.05.556	SS	2023.1.0	60.02033486262189	NA
[(0, 2), (1, 1), (0, 2), (0, 2), (1, 1), (1, 1), (1, 2), (1, 1), (0, 0)]	NA	NA	NA	NA	NA	NA	NA	NA	NA	NA	NA	NA	NA	NA	NA	NA	NA	NA	NA	NA	NA	NA	NA	NA	0	0	0	0	0	0	0	306	NA	NA	NA	NA	NA	NA	NA	NA	NA	NA	NA	NA	904.8140039999272	NA	NA	NA	NA	NA	NA	NA	NA	NA	NA	NA	NA	NA	NA	NA	907.8969496999634	908.8842121999478	['right', 'right', 'left', 'left', 'right', 'left']	[6.996356899966486, 9.039221299928613, 10.812643599929288, 13.777002700022422, 15.00086339993868, 16.863738299929537]	NA	NA	NA	NA	cio	001	2026-02-13_12h34.05.556	SS	2023.1.0	60.02033486262189	NA
[(0, 2), (1, 0), (1, 0), (2, 0), (0, 1), (1, 0), (1, 2), (0, 1), (1, 2)]	NA	NA	NA	NA	NA	NA	NA	NA	NA	NA	NA	NA	NA	NA	NA	NA	NA	NA	NA	NA	NA	NA	NA	NA	0	0	0	0	0	1	1	409	NA	NA	NA	NA	NA	NA	NA	NA	NA	NA	NA	NA	NA	NA	NA	NA	NA	NA	NA	NA	NA	NA	NA	NA	NA	NA	NA	NA	NA	927.8942027000012	['left', 'left', 'right', 'left', 'right']	[6.678057400044054, 8.786730600055307, 11.499559400021099, 13.722088000038639, 15.210805700044148]	NA	NA	NA	NA	cio	001	2026-02-13_12h34.05.556	SS	2023.1.0	60.02033486262189	NA
[(0, 2), (0, 1), (2, 0), (0, 2), (0, 2), (2, 2), (0, 2), (1, 1), (0, 1)]	NA	NA	NA	NA	NA	NA	NA	NA	NA	NA	NA	NA	NA	NA	NA	NA	NA	NA	NA	NA	NA	NA	NA	NA	0	0	0	0	0	2	2	457	NA	NA	NA	NA	NA	NA	NA	NA	NA	NA	NA	NA	NA	NA	NA	NA	NA	NA	NA	NA	NA	NA	NA	NA	NA	NA	NA	NA	NA	946.879307999974	['left', 'right', 'left', 'left', 'right', 'left', 'right']	[6.842460299958475, 7.4916359999915585, 10.020970599958673, 11.381844599964097, 13.594001800054684, 15.879084200016223, 16.9855993000092]	NA	NA	NA	NA	cio	001	2026-02-13_12h34.05.556	SS	2023.1.0	60.02033486262189	NA
[(2, 0), (2, 0), (2, 1), (2, 2), (2, 0), (2, 2), (2, 1), (2, 2), (2, 2)]	NA	NA	NA	NA	NA	NA	NA	NA	NA	NA	NA	NA	NA	NA	NA	NA	NA	NA	NA	NA	NA	NA	NA	NA	0	0	0	0	0	3	3	227	NA	NA	NA	NA	NA	NA	NA	NA	NA	NA	NA	NA	NA	NA	NA	NA	NA	NA	NA	NA	NA	NA	NA	NA	NA	NA	NA	NA	NA	965.8888185999822	['left', 'right', 'right', 'left', 'right', 'left']	[6.754976400057785, 10.220537799992599, 11.386324600083753, 12.947106500039808, 15.151409100042656, 17.049205400049686]	NA	NA	NA	NA	cio	001	2026-02-13_12h34.05.556	SS	2023.1.0	60.02033486262189	NA
[(0, 2), (2, 1), (1, 0), (0, 2), (0, 2), (2, 2), (1, 1), (0, 2), (0, 1)]	NA	NA	NA	NA	NA	NA	NA	NA	NA	NA	NA	NA	NA	NA	NA	NA	NA	NA	NA	NA	NA	NA	NA	NA	0	0	0	0	0	4	4	226	NA	NA	NA	NA	NA	NA	NA	NA	NA	NA	NA	NA	NA	NA	NA	NA	NA	NA	NA	NA	NA	NA	NA	NA	NA	NA	NA	NA	NA	984.8862573999212	['right', 'left', 'left', 'left', 'right', 'left']	[6.963141900021583, 9.078752300003543, 12.106678599957377, 12.878637599991634, 15.625294800032862, 17.057989299995825]	NA	NA	NA	NA	cio	001	2026-02-13_12h34.05.556	SS	2023.1.0	60.02033486262189	NA
[(0, 1), (0, 0), (2, 0), (2, 0), (1, 2), (0, 1), (2, 0), (1, 2), (1, 1)]	NA	NA	NA	NA	NA	NA	NA	NA	NA	NA	NA	NA	NA	NA	NA	NA	NA	NA	NA	NA	NA	NA	NA	NA	0	0	0	0	0	5	5	674	NA	NA	NA	NA	NA	NA	NA	NA	NA	NA	NA	NA	NA	NA	NA	NA	NA	NA	NA	NA	NA	NA	NA	NA	NA	NA	NA	NA	NA	1003.8835719999624	['left', 'left', 'right', 'right', 'right', 'left']	[7.428502499940805, 8.95210439991206, 11.315461699967273, 13.509188600000925, 15.678023900021799, 16.972441499936394]	NA	NA	NA	NA	cio	001	2026-02-13_12h34.05.556	SS	2023.1.0	60.02033486262189	NA
NA	NA	NA	NA	NA	NA	NA	NA	NA	NA	NA	NA	NA	NA	NA	NA	NA	NA	NA	NA	NA	NA	NA	NA	NA	0	0	0	0	NA	NA	NA	NA	NA	NA	NA	NA	NA	NA	NA	NA	NA	NA	NA	NA	NA	NA	NA	NA	NA	NA	NA	NA	NA	NA	NA	NA	NA	NA	NA	NA	NA	NA	NA	NA	NA	NA	NA	NA	cio	001	2026-02-13_12h34.05.556	SS	2023.1.0	60.02033486262189	NA
[(1, 1), (0, 1), (2, 2), (1, 1), (1, 0), (0, 0), (0, 0), (1, 0), (2, 1)]	NA	NA	NA	NA	NA	NA	NA	NA	NA	NA	NA	NA	NA	NA	NA	NA	NA	NA	NA	NA	NA	NA	NA	NA	1	0	1	0	0	0	0	658	NA	NA	NA	NA	NA	NA	NA	NA	NA	NA	NA	NA	NA	NA	NA	NA	NA	NA	NA	NA	NA	NA	NA	NA	NA	NA	NA	NA	NA	1025.684637199971	['right', 'left', 'left', 'left', 'right', 'left']	[6.755708100041375, 10.208587100030854, 11.476202300051227, 13.639236300019547, 14.902301300084218, 17.304456900106743]	NA	NA	NA	NA	cio	001	2026-02-13_12h34.05.556	SS	2023.1.0	60.02033486262189	NA
[(1, 2), (0, 2), (1, 2), (0, 0), (0, 2), (2, 1), (0, 0), (0, 0), (2, 2)]	NA	NA	NA	NA	NA	NA	NA	NA	NA	NA	NA	NA	NA	NA	NA	NA	NA	NA	NA	NA	NA	NA	NA	NA	1	0	1	0	0	1	1	347	NA	NA	NA	NA	NA	NA	NA	NA	NA	NA	NA	NA	NA	NA	NA	NA	NA	NA	NA	NA	NA	NA	NA	NA	NA	NA	NA	NA	NA	1044.6819634999847	['left', 'left', 'left', 'right', 'right', 'left']	[7.34820469992701, 10.11368699988816, 10.903118199901655, 12.940230999956839, 15.805873099947348, 17.07184969994705]	NA	NA	NA	NA	cio	001	2026-02-13_12h34.05.556	SS	2023.1.0	60.02033486262189	NA
[(1, 1), (2, 1), (1, 1), (1, 1), (2, 1), (0, 1), (0, 2), (1, 0), (2, 2)]	NA	NA	NA	NA	NA	NA	NA	NA	NA	NA	NA	NA	NA	NA	NA	NA	NA	NA	NA	NA	NA	NA	NA	NA	1	0	1	0	0	2	2	551	NA	NA	NA	NA	NA	NA	NA	NA	NA	NA	NA	NA	NA	NA	NA	NA	NA	NA	NA	NA	NA	NA	NA	NA	NA	NA	NA	NA	NA	1063.6920652999545	['right', 'left', 'left', 'left', 'left', 'left']	[6.678061799961142, 10.36944419995416, 11.27468189992942, 12.947750699939206, 15.656531399930827, 17.052295199944638]	NA	NA	NA	NA	cio	001	2026-02-13_12h34.05.556	SS	2023.1.0	60.02033486262189	NA
[(1, 1), (0, 0), (2, 0), (2, 2), (0, 2), (1, 2), (0, 0), (0, 2), (1, 2)]	NA	NA	NA	NA	NA	NA	NA	NA	NA	NA	NA	NA	NA	NA	NA	NA	NA	NA	NA	NA	NA	NA	NA	NA	1	0	1	0	0	3	3	648	NA	NA	NA	NA	NA	NA	NA	NA	NA	NA	NA	NA	NA	NA	NA	NA	NA	NA	NA	NA	NA	NA	NA	NA	NA	NA	NA	NA	NA	1082.6769176999803	['left', 'left', 'left', 'right', 'right', 'left']	[6.711549500003457, 9.183028199942783, 11.190384899964556, 13.129921199986711, 15.743064099922776, 16.893294099951163]	NA	NA	NA	NA	cio	001	2026-02-13_12h34.05.556	SS	2023.1.0	60.02033486262189	NA
[(1, 2), (1, 2), (1, 0), (1, 1), (2, 1), (1, 2), (1, 1), (2, 1), (2, 1)]	NA	NA	NA	NA	NA	NA	NA	NA	NA	NA	NA	NA	NA	NA	NA	NA	NA	NA	NA	NA	NA	NA	NA	NA	1	0	1	0	0	4	4	84	NA	NA	NA	NA	NA	NA	NA	NA	NA	NA	NA	NA	NA	NA	NA	NA	NA	NA	NA	NA	NA	NA	NA	NA	NA	NA	NA	NA	NA	1101.6735803999472	['left', 'left', 'right', 'left', 'left', 'right']	[7.514174900017679, 8.896552699967287, 10.873979500029236, 13.133398000034504, 15.312414100044407, 17.55238529993221]	NA	NA	NA	NA	cio	001	2026-02-13_12h34.05.556	SS	2023.1.0	60.02033486262189	NA
[(0, 1), (2, 0), (1, 1), (0, 1), (0, 1), (2, 1), (0, 1), (2, 0), (0, 2)]	NA	NA	NA	NA	NA	NA	NA	NA	NA	NA	NA	NA	NA	NA	NA	NA	NA	NA	NA	NA	NA	NA	NA	NA	1	0	1	0	0	5	5	645	NA	NA	NA	NA	NA	NA	NA	NA	NA	NA	NA	NA	NA	NA	NA	NA	NA	NA	NA	NA	NA	NA	NA	NA	NA	NA	NA	NA	NA	1120.7006390999304	['right', 'left', 'left', 'right', 'left', 'right']	[6.920760600012727, 9.268839000025764, 12.216477899928577, 12.85930519993417, 15.88503809995018, 17.517069299938157]	NA	NA	NA	NA	cio	001	2026-02-13_12h34.05.556	SS	2023.1.0	60.02033486262189	NA
NA	NA	NA	NA	NA	NA	NA	NA	NA	NA	NA	NA	NA	NA	NA	NA	NA	NA	NA	NA	NA	NA	NA	NA	NA	1	0	1	0	NA	NA	NA	NA	NA	NA	NA	NA	NA	NA	NA	NA	NA	NA	NA	NA	NA	NA	NA	NA	NA	NA	NA	NA	NA	NA	NA	NA	NA	NA	NA	NA	NA	NA	NA	NA	NA	NA	NA	NA	cio	001	2026-02-13_12h34.05.556	SS	2023.1.0	60.02033486262189	NA
[(0, 0), (0, 0), (0, 2), (1, 1), (2, 1), (2, 2), (0, 2), (0, 0), (2, 1), (1, 1)]	NA	NA	NA	NA	NA	NA	NA	NA	NA	NA	NA	NA	NA	NA	NA	NA	NA	NA	NA	NA	NA	NA	NA	NA	NA	NA	NA	NA	NA	NA	NA	NA	0	0	0	0	0	0	0	480	NA	NA	NA	NA	NA	NA	NA	NA	1140.8355122999055	NA	NA	NA	NA	NA	NA	NA	NA	NA	NA	NA	NA	NA	NA	NA	1143.9306409999265	1144.9007260999642	['left', 'left', 'right', 'left', 'right', 'right']	[9.093830300029367, 11.124027900048532, 12.802979300031438, 15.694358900072984, 17.079366000019945, 19.227178400033154]	cio	001	2026-02-13_12h34.05.556	SS	2023.1.0	60.02033486262189	NA
[(0, 1), (0, 2), (1, 2), (1, 2), (0, 1), (2, 2), (1, 1), (1, 0), (1, 1), (2, 2)]	NA	NA	NA	NA	NA	NA	NA	NA	NA	NA	NA	NA	NA	NA	NA	NA	NA	NA	NA	NA	NA	NA	NA	NA	NA	NA	NA	NA	NA	NA	NA	NA	0	0	0	0	0	1	1	199	NA	NA	NA	NA	NA	NA	NA	NA	NA	NA	NA	NA	NA	NA	NA	NA	NA	NA	NA	NA	NA	NA	NA	NA	NA	1166.2471522999697	['right', 'left', 'left', 'left', 'right', 'left']	[8.955682900035754, 11.013741299975663, 13.950891899992712, 14.808545000036247, 16.874167900066823, 19.140672500012442]	cio	001	2026-02-13_12h34.05.556	SS	2023.1.0	60.02033486262189	NA
[(1, 1), (1, 0), (2, 1), (0, 0), (1, 1), (0, 0), (2, 1), (1, 2), (1, 2), (0, 1)]	NA	NA	NA	NA	NA	NA	NA	NA	NA	NA	NA	NA	NA	NA	NA	NA	NA	NA	NA	NA	NA	NA	NA	NA	NA	NA	NA	NA	NA	NA	NA	NA	0	0	0	0	0	2	2	47	NA	NA	NA	NA	NA	NA	NA	NA	NA	NA	NA	NA	NA	NA	NA	NA	NA	NA	NA	NA	NA	NA	NA	NA	NA	1186.89499099995	['left', 'right', 'right', 'left', 'left', 'right']	[9.122821299941279, 10.752068699919619, 13.164117699954659, 15.061183299985714, 17.269700499949977, 18.884571800008416]	cio	001	2026-02-13_12h34.05.556	SS	2023.1.0	60.02033486262189	NA
[(0, 0), (2, 1), (2, 0), (0, 1), (0, 2), (2, 0), (2, 0), (2, 1), (2, 1), (2, 0)]	NA	NA	NA	NA	NA	NA	NA	NA	NA	NA	NA	NA	NA	NA	NA	NA	NA	NA	NA	NA	NA	NA	NA	NA	NA	NA	NA	NA	NA	NA	NA	NA	0	0	0	0	0	3	3	196	NA	NA	NA	NA	NA	NA	NA	NA	NA	NA	NA	NA	NA	NA	NA	NA	NA	NA	NA	NA	NA	NA	NA	NA	NA	1207.8924140000015	['right', 'right', 'right', 'left', 'right', 'right']	[9.508941099978983, 11.303418600000441, 13.089621899998747, 14.961071599973366, 16.70583670004271, 19.138662799960002]	cio	001	2026-02-13_12h34.05.556	SS	2023.1.0	60.02033486262189	NA
[(1, 0), (1, 1), (2, 1), (1, 0), (1, 0), (2, 2), (1, 1), (1, 1), (1, 0), (2, 2)]	NA	NA	NA	NA	NA	NA	NA	NA	NA	NA	NA	NA	NA	NA	NA	NA	NA	NA	NA	NA	NA	NA	NA	NA	NA	NA	NA	NA	NA	NA	NA	NA	0	0	0	0	0	4	4	278	NA	NA	NA	NA	NA	NA	NA	NA	NA	NA	NA	NA	NA	NA	NA	NA	NA	NA	NA	NA	NA	NA	NA	NA	NA	1228.9059307000134	['right', 'left', 'right', 'left', 'left', 'right']	[8.761456200038083, 11.581569400033914, 13.765633100061677, 15.13376880006399, 17.84800990007352, 18.967919400078245]	cio	001	2026-02-13_12h34.05.556	SS	2023.1.0	60.02033486262189	NA
[(0, 0), (2, 1), (0, 2), (2, 1), (0, 0), (1, 2), (1, 1), (2, 1), (2, 2), (0, 1)]	NA	NA	NA	NA	NA	NA	NA	NA	NA	NA	NA	NA	NA	NA	NA	NA	NA	NA	NA	NA	NA	NA	NA	NA	NA	NA	NA	NA	NA	NA	NA	NA	0	0	0	0	0	5	5	655	NA	NA	NA	NA	NA	NA	NA	NA	NA	NA	NA	NA	NA	NA	NA	NA	NA	NA	NA	NA	NA	NA	NA	NA	NA	1249.9039615999209	['right', 'left', 'left', 'right', 'left', 'right']	[8.888629099936225, 10.931648700032383, 14.590498699923046, 15.179821599973366, 16.60704169992823, 18.734163100016303]	cio	001	2026-02-13_12h34.05.556	SS	2023.1.0	60.02033486262189	NA
NA	NA	NA	NA	NA	NA	NA	NA	NA	NA	NA	NA	NA	NA	NA	NA	NA	NA	NA	NA	NA	NA	NA	NA	NA	NA	NA	NA	NA	NA	NA	NA	NA	0	0	0	0	NA	NA	NA	NA	NA	NA	NA	NA	NA	NA	NA	NA	NA	NA	NA	NA	NA	NA	NA	NA	NA	NA	NA	NA	NA	NA	NA	NA	NA	NA	NA	NA	cio	001	2026-02-13_12h34.05.556	SS	2023.1.0	60.02033486262189	NA
[(2, 2), (0, 0), (2, 2), (2, 1), (1, 2), (0, 0), (1, 1), (0, 1), (0, 2), (0, 0)]	NA	NA	NA	NA	NA	NA	NA	NA	NA	NA	NA	NA	NA	NA	NA	NA	NA	NA	NA	NA	NA	NA	NA	NA	NA	NA	NA	NA	NA	NA	NA	NA	1	0	1	0	0	0	0	532	NA	NA	NA	NA	NA	NA	NA	NA	NA	NA	NA	NA	NA	NA	NA	NA	NA	NA	NA	NA	NA	NA	NA	NA	NA	1284.4150905999122	['left', 'left', 'left', 'right', 'right', 'left']	[9.294928599963896, 12.305477599962614, 13.134928400046192, 14.741064800065942, 16.5108479000628, 18.758624300011434]	cio	001	2026-02-13_12h34.05.556	SS	2023.1.0	60.02033486262189	NA
[(2, 2), (0, 2), (0, 0), (0, 2), (1, 0), (2, 2), (1, 2), (2, 1), (1, 0), (2, 2)]	NA	NA	NA	NA	NA	NA	NA	NA	NA	NA	NA	NA	NA	NA	NA	NA	NA	NA	NA	NA	NA	NA	NA	NA	NA	NA	NA	NA	NA	NA	NA	NA	1	0	1	0	0	1	1	261	NA	NA	NA	NA	NA	NA	NA	NA	NA	NA	NA	NA	NA	NA	NA	NA	NA	NA	NA	NA	NA	NA	NA	NA	NA	1305.4117742999224	['left', 'left', 'right', 'left', 'right', 'left']	[8.995932499994524, 12.101112100062892, 13.350734299980104, 14.9087731000036, 17.312569500063546, 19.4984038999537]	cio	001	2026-02-13_12h34.05.556	SS	2023.1.0	60.02033486262189	NA
[(0, 0), (2, 0), (2, 2), (1, 2), (0, 0), (2, 1), (2, 2), (1, 2), (1, 2), (2, 2)]	NA	NA	NA	NA	NA	NA	NA	NA	NA	NA	NA	NA	NA	NA	NA	NA	NA	NA	NA	NA	NA	NA	NA	NA	NA	NA	NA	NA	NA	NA	NA	NA	1	0	1	0	0	2	2	328	NA	NA	NA	NA	NA	NA	NA	NA	NA	NA	NA	NA	NA	NA	NA	NA	NA	NA	NA	NA	NA	NA	NA	NA	NA	1326.4099627999822	['right', 'right', 'right', 'right', 'left', 'right']	[9.325427899952047, 10.931127499905415, 13.25494739995338, 14.739571699989028, 17.174706399906427, 19.35413799993694]	cio	001	2026-02-13_12h34.05.556	SS	2023.1.0	60.02033486262189	NA
[(0, 1), (1, 2), (2, 0), (2, 2), (0, 1), (0, 0), (0, 2), (2, 1), (1, 1), (0, 0)]	NA	NA	NA	NA	NA	NA	NA	NA	NA	NA	NA	NA	NA	NA	NA	NA	NA	NA	NA	NA	NA	NA	NA	NA	NA	NA	NA	NA	NA	NA	NA	NA	1	0	1	0	0	3	3	316	NA	NA	NA	NA	NA	NA	NA	NA	NA	NA	NA	NA	NA	NA	NA	NA	NA	NA	NA	NA	NA	NA	NA	NA	NA	1347.419132799958	['right', 'left', 'right', 'right', 'right', 'left']	[9.004061099956743, 12.200849099899642, 13.250601699925028, 15.033892799983732, 17.105120499967597, 18.674425299977884]	cio	001	2026-02-13_12h34.05.556	SS	2023.1.0	60.02033486262189	NA
[(2, 1), (2, 0), (1, 1), (2, 0), (2, 1), (1, 0), (1, 2), (2, 2), (2, 1), (1, 1)]	NA	NA	NA	NA	NA	NA	NA	NA	NA	NA	NA	NA	NA	NA	NA	NA	NA	NA	NA	NA	NA	NA	NA	NA	NA	NA	NA	NA	NA	NA	NA	NA	1	0	1	0	0	4	4	658	NA	NA	NA	NA	NA	NA	NA	NA	NA	NA	NA	NA	NA	NA	NA	NA	NA	NA	NA	NA	NA	NA	NA	NA	NA	1368.416277899989	['right', 'left', 'left', 'left', 'left', 'right']	[8.798987200018018, 11.078943200060166, 13.277597400010563, 15.231238699983805, 17.712203199975193, 18.96366680006031]	cio	001	2026-02-13_12h34.05.556	SS	2023.1.0	60.02033486262189	NA
[(0, 0), (1, 0), (2, 1), (0, 2), (0, 2), (0, 0), (2, 0), (2, 2), (0, 2), (0, 0)]	NA	NA	NA	NA	NA	NA	NA	NA	NA	NA	NA	NA	NA	NA	NA	NA	NA	NA	NA	NA	NA	NA	NA	NA	NA	NA	NA	NA	NA	NA	NA	NA	1	0	1	0	0	5	5	108	NA	NA	NA	NA	NA	NA	NA	NA	NA	NA	NA	NA	NA	NA	NA	NA	NA	NA	NA	NA	NA	NA	NA	NA	NA	1389.4170655999333	['left', 'right', 'left', 'right', 'right', 'left']	[9.020025299978442, 11.57944410003256, 13.553324399981648, 15.783324099960737, 17.497994799981825, 19.106263000052422]	cio	001	2026-02-13_12h34.05.556	SS	2023.1.0	60.02033486262189	NA
NA	NA	NA	NA	NA	NA	NA	NA	NA	NA	NA	NA	NA	NA	NA	NA	NA	NA	NA	NA	NA	NA	NA	NA	NA	NA	NA	NA	NA	NA	NA	NA	NA	1	0	1	0	NA	NA	NA	NA	NA	NA	NA	NA	NA	NA	NA	NA	NA	NA	NA	NA	NA	NA	NA	NA	NA	NA	NA	NA	NA	NA	NA	NA	NA	NA	NA	NA	cio	001	2026-02-13_12h34.05.556	SS	2023.1.0	60.02033486262189	NA
