clr1p1,clr2p1,clr3p1,clr4p1,clr1p2,clr2p2,clr3p2,clr4p2,Hshow,Htest,stim_var,blank_clr,difficulty,answ,l_test,r_test,realclr2,realclr3,realclr,fake_hue,training.thisRepN,training.thisTrialN,training.thisN,training.thisIndex,trials.thisRepN,trials.thisTrialN,trials.thisN,trials.thisIndex,CC_resp_2.keys,CC_resp_2.corr,CC_resp_2.rt,CC_resp.keys,CC_resp.corr,CC_resp.rt,participant,session,date,expName,psychopyVersion,frameRate
#00897B,#004D40,#E0F2F1,#4DB6AC,#3949AB,#1A237E,#000000,#7986CB,lime,indigo,l_rand1,clr3,low,left,#E8EAF6,#9FA8DA,#1A237E,#E8EAF6,#E8EAF6,indigo,0,0,0,29,,,,,left,1,0.5982174002565444,,,,FID,1,2026-04-24_08h47.19.096,MCT,2023.1.0,60.06298217307046
#3E2723,#EFEBE9,#6D4C41,#A1887F,#0D47A1,#E3F2FD,#000000,#64B5F6,brown,blue,l_rand2,clr3,none,right,#5E35B1,#1E88E5,#E3F2FD,#1E88E5,#1E88E5,d_purple,0,1,1,87,,,,,right,1,0.5585736003704369,,,,FID,1,2026-04-24_08h47.19.096,MCT,2023.1.0,60.06298217307046
#33691E,#F1F8E9,#7CB342,#AED581,#0D47A1,#E3F2FD,#000000,#64B5F6,l_green,blue,l_rand2,clr3,low,left,#1E88E5,#42A5F5,#E3F2FD,#1E88E5,#1E88E5,blue,0,2,2,45,,,,,left,1,0.9934402001090348,,,,FID,1,2026-04-24_08h47.19.096,MCT,2023.1.0,60.06298217307046
#E65100,#FB8C00,#FFB74D,#FFF3E0,#0D47A1,#1E88E5,#000000,#E3F2FD,orange,blue,l_up,clr3,high,left,#64B5F6,#42A5F5,#1E88E5,#64B5F6,#64B5F6,blue,0,3,3,56,,,,,right,0,0.8421543003059924,,,,FID,1,2026-04-24_08h47.19.096,MCT,2023.1.0,60.06298217307046
#E65100,#FB8C00,#FFB74D,#FFF3E0,#0D47A1,#1E88E5,#000000,#E3F2FD,orange,blue,l_up,clr3,high,left,#64B5F6,#42A5F5,#1E88E5,#64B5F6,#64B5F6,blue,,,,,0,0,0,56,,,,right,0,1.3293237006291747,FID,1,2026-04-24_08h47.19.096,MCT,2023.1.0,60.06298217307046
#1A237E,#E8EAF6,#3949AB,#7986CB,#01579B,#E1F5FE,#000000,#4FC3F7,indigo,l_blue,l_rand2,clr3,none,right,#00897B,#039BE5,#E1F5FE,#039BE5,#039BE5,teal,,,,,0,1,1,85,,,,right,1,1.4588368004187942,FID,1,2026-04-24_08h47.19.096,MCT,2023.1.0,60.06298217307046
#D81B60,#880E4F,#FCE4EC,#F06292,#FDD835,#F57F17,#000000,#FFF176,pink,yellow,l_rand1,clr3,high,right,#FFF9C4,#FFFDE7,#F57F17,#FFFDE7,#FFFDE7,yellow,,,,,0,2,2,24,,,,right,1,1.883817800320685,FID,1,2026-04-24_08h47.19.096,MCT,2023.1.0,60.06298217307046
#3949AB,#1A237E,#E8EAF6,#7986CB,#7CB342,#000000,#F1F8E9,#AED581,indigo,l_green,l_rand1,clr2,high,left,#33691E,#558B2F,#33691E,#F1F8E9,#33691E,l_green,,,,,0,3,3,19,,,,left,1,0.9995004003867507,FID,1,2026-04-24_08h47.19.096,MCT,2023.1.0,60.06298217307046
#3949AB,#1A237E,#E8EAF6,#7986CB,#7CB342,#000000,#F1F8E9,#AED581,indigo,l_green,l_rand1,clr2,none,left,#33691E,#004D40,#33691E,#F1F8E9,#33691E,teal,,,,,0,4,4,75,,,,left,1,1.6249508005566895,FID,1,2026-04-24_08h47.19.096,MCT,2023.1.0,60.06298217307046
#43A047,#1B5E20,#E8F5E9,#81C784,#00ACC1,#006064,#000000,#4DD0E1,green,cyan,l_rand1,clr3,low,left,#E0F7FA,#80DEEA,#006064,#E0F7FA,#E0F7FA,cyan,,,,,0,5,5,31,,,,left,1,0.8630430004559457,FID,1,2026-04-24_08h47.19.096,MCT,2023.1.0,60.06298217307046
#FFFDE7,#FFF176,#FDD835,#F57F17,#E0F7FA,#4DD0E1,#000000,#006064,yellow,cyan,l_down,clr3,none,left,#00ACC1,#1E88E5,#4DD0E1,#00ACC1,#00ACC1,blue,,,,,0,6,6,70,,,,left,1,1.426676600240171,FID,1,2026-04-24_08h47.19.096,MCT,2023.1.0,60.06298217307046
#1B5E20,#43A047,#81C784,#E8F5E9,#004D40,#000000,#4DB6AC,#E0F2F1,green,lime,l_up,clr2,high,right,#00796B,#00897B,#00897B,#4DB6AC,#00897B,lime,,,,,0,7,7,52,,,,right,1,0.6765156001783907,FID,1,2026-04-24_08h47.19.096,MCT,2023.1.0,60.06298217307046
#880E4F,#FCE4EC,#D81B60,#F06292,#33691E,#000000,#7CB342,#AED581,pink,l_green,l_rand2,clr2,none,left,#F1F8E9,#FFFDE7,#F1F8E9,#7CB342,#F1F8E9,yellow,,,,,0,8,8,80,,,,right,0,0.8262100000865757,FID,1,2026-04-24_08h47.19.096,MCT,2023.1.0,60.06298217307046
#E65100,#FB8C00,#FFB74D,#FFF3E0,#0D47A1,#1E88E5,#000000,#E3F2FD,orange,blue,l_up,clr3,none,left,#64B5F6,#4DD0E1,#1E88E5,#64B5F6,#64B5F6,cyan,,,,,0,9,9,93,,,,left,1,0.865335600450635,FID,1,2026-04-24_08h47.19.096,MCT,2023.1.0,60.06298217307046
#E53935,#B71C1C,#FFEBEE,#E57373,#7CB342,#000000,#F1F8E9,#AED581,red,l_green,l_rand1,clr2,low,right,#689F38,#33691E,#33691E,#F1F8E9,#33691E,l_green,,,,,0,10,10,20,,,,right,1,0.5807537003420293,FID,1,2026-04-24_08h47.19.096,MCT,2023.1.0,60.06298217307046
#8E24AA,#4A148C,#F3E5F5,#BA68C8,#5E35B1,#000000,#EDE7F6,#9575CD,purple,d_purple,l_rand1,clr2,high,left,#311B92,#4527A0,#311B92,#EDE7F6,#311B92,d_purple,,,,,0,11,11,16,,,,right,0,0.87691880017519,FID,1,2026-04-24_08h47.19.096,MCT,2023.1.0,60.06298217307046
#33691E,#7CB342,#AED581,#F1F8E9,#880E4F,#000000,#F06292,#FCE4EC,l_green,pink,l_up,clr2,high,left,#D81B60,#E91E63,#D81B60,#F06292,#D81B60,pink,,,,,0,12,12,49,,,,left,1,1.506426200736314,FID,1,2026-04-24_08h47.19.096,MCT,2023.1.0,60.06298217307046
#FFF8E1,#FFD54F,#FFB300,#FF6F00,#E8EAF6,#7986CB,#000000,#1A237E,amber,indigo,l_down,clr3,none,right,#039BE5,#3949AB,#7986CB,#3949AB,#3949AB,l_blue,,,,,0,13,13,71,,,,right,1,1.2295358004048467,FID,1,2026-04-24_08h47.19.096,MCT,2023.1.0,60.06298217307046
#E0F2F1,#4DB6AC,#00897B,#004D40,#FBE9E7,#000000,#F4511E,#BF360C,lime,d_orange,l_down,clr2,low,right,#FF5722,#FF8A65,#FF8A65,#F4511E,#FF8A65,d_orange,,,,,0,14,14,7,,,,right,1,1.2134100003167987,FID,1,2026-04-24_08h47.19.096,MCT,2023.1.0,60.06298217307046
#FFFDE7,#FFF176,#FDD835,#F57F17,#E0F7FA,#4DD0E1,#000000,#006064,yellow,cyan,l_down,clr3,high,left,#00ACC1,#00BCD4,#4DD0E1,#00ACC1,#00ACC1,cyan,,,,,0,15,15,9,,,,right,0,1.5920971003361046,FID,1,2026-04-24_08h47.19.096,MCT,2023.1.0,60.06298217307046
#1E88E5,#0D47A1,#E3F2FD,#64B5F6,#C0CA33,#827717,#000000,#DCE775,blue,lime,l_rand1,clr3,high,right,#F0F4C3,#F9FBE7,#827717,#F9FBE7,#F9FBE7,lime,,,,,0,16,16,25,,,,right,1,2.0291851004585624,FID,1,2026-04-24_08h47.19.096,MCT,2023.1.0,60.06298217307046
#4A148C,#8E24AA,#BA68C8,#F3E5F5,#0D47A1,#000000,#64B5F6,#E3F2FD,purple,blue,l_up,clr2,none,left,#1E88E5,#00ACC1,#1E88E5,#64B5F6,#1E88E5,cyan,,,,,0,17,17,88,,,,right,0,1.581013800110668,FID,1,2026-04-24_08h47.19.096,MCT,2023.1.0,60.06298217307046
#FF6F00,#FFF8E1,#FFB300,#FFD54F,#880E4F,#000000,#D81B60,#F06292,amber,pink,l_rand2,clr2,high,left,#FCE4EC,#F8BBD0,#FCE4EC,#D81B60,#FCE4EC,pink,,,,,0,18,18,34,,,,left,1,0.7311866004019976,FID,1,2026-04-24_08h47.19.096,MCT,2023.1.0,60.06298217307046
#F57F17,#FDD835,#FFF176,#FFFDE7,#33691E,#7CB342,#000000,#F1F8E9,yellow,l_green,l_up,clr3,low,left,#AED581,#DCEDC8,#7CB342,#AED581,#AED581,l_green,,,,,0,19,19,60,,,,left,1,0.7088095005601645,FID,1,2026-04-24_08h47.19.096,MCT,2023.1.0,60.06298217307046
#3E2723,#EFEBE9,#6D4C41,#A1887F,#0D47A1,#E3F2FD,#000000,#64B5F6,brown,blue,l_rand2,clr3,none,right,#5E35B1,#1E88E5,#E3F2FD,#1E88E5,#1E88E5,d_purple,,,,,0,20,20,87,,,,right,1,0.5800451999530196,FID,1,2026-04-24_08h47.19.096,MCT,2023.1.0,60.06298217307046
#FCE4EC,#F06292,#D81B60,#880E4F,#FBE9E7,#000000,#F4511E,#BF360C,pink,d_orange,l_down,clr2,none,right,#FFD54F,#FF8A65,#FF8A65,#F4511E,#FF8A65,amber,,,,,0,21,21,67,,,,right,1,1.6802409002557397,FID,1,2026-04-24_08h47.19.096,MCT,2023.1.0,60.06298217307046
#BF360C,#FBE9E7,#F4511E,#FF8A65,#B71C1C,#000000,#E53935,#E57373,d_orange,red,l_rand2,clr2,low,right,#EF9A9A,#FFEBEE,#FFEBEE,#E53935,#FFEBEE,red,,,,,0,22,22,38,,,,right,1,0.7001074003055692,FID,1,2026-04-24_08h47.19.096,MCT,2023.1.0,60.06298217307046
#F57F17,#FFFDE7,#FDD835,#FFF176,#BF360C,#FBE9E7,#000000,#FF8A65,yellow,d_orange,l_rand2,clr3,high,right,#FF5722,#F4511E,#FBE9E7,#F4511E,#F4511E,d_orange,,,,,0,23,23,42,,,,left,0,0.8588631004095078,FID,1,2026-04-24_08h47.19.096,MCT,2023.1.0,60.06298217307046
#1A237E,#E8EAF6,#3949AB,#7986CB,#01579B,#E1F5FE,#000000,#4FC3F7,indigo,l_blue,l_rand2,clr3,high,right,#03A9F4,#039BE5,#E1F5FE,#039BE5,#039BE5,l_blue,,,,,0,24,24,40,,,,right,1,0.43487760005518794,FID,1,2026-04-24_08h47.19.096,MCT,2023.1.0,60.06298217307046
#B71C1C,#FFEBEE,#E53935,#E57373,#E65100,#000000,#FB8C00,#FFB74D,red,orange,l_rand2,clr2,low,right,#FFCC80,#FFF3E0,#FFF3E0,#FB8C00,#FFF3E0,orange,,,,,0,25,25,39,,,,right,1,0.6390868001617491,FID,1,2026-04-24_08h47.19.096,MCT,2023.1.0,60.06298217307046
#4A148C,#F3E5F5,#8E24AA,#BA68C8,#827717,#F9FBE7,#000000,#DCE775,purple,lime,l_rand2,clr3,low,left,#C0CA33,#D4E157,#F9FBE7,#C0CA33,#C0CA33,lime,,,,,0,26,26,44,,,,right,0,0.758752400521189,FID,1,2026-04-24_08h47.19.096,MCT,2023.1.0,60.06298217307046
#EDE7F6,#9575CD,#5E35B1,#311B92,#FFF8E1,#000000,#FFB300,#FF6F00,d_purple,amber,l_down,clr2,low,right,#FFC107,#FFD54F,#FFD54F,#FFB300,#FFD54F,amber,,,,,0,27,27,6,,,,right,1,1.430524100549519,FID,1,2026-04-24_08h47.19.096,MCT,2023.1.0,60.06298217307046
#FFF3E0,#FFB74D,#FB8C00,#E65100,#FCE4EC,#F06292,#000000,#880E4F,orange,pink,l_down,clr3,low,left,#D81B60,#EC407A,#F06292,#D81B60,#D81B60,pink,,,,,0,28,28,12,,,,right,0,1.0750908004119992,FID,1,2026-04-24_08h47.19.096,MCT,2023.1.0,60.06298217307046
#FFB300,#FF6F00,#FFF8E1,#FFD54F,#039BE5,#01579B,#000000,#4FC3F7,amber,l_blue,l_rand1,clr3,high,right,#B3E5FC,#E1F5FE,#01579B,#E1F5FE,#E1F5FE,l_blue,,,,,0,29,29,27,,,,right,1,0.9487301004119217,FID,1,2026-04-24_08h47.19.096,MCT,2023.1.0,60.06298217307046
#7CB342,#33691E,#F1F8E9,#AED581,#8E24AA,#000000,#F3E5F5,#BA68C8,l_green,purple,l_rand1,clr2,none,left,#4A148C,#B71C1C,#4A148C,#F3E5F5,#4A148C,red,,,,,0,30,30,73,,,,left,1,0.7182059003971517,FID,1,2026-04-24_08h47.19.096,MCT,2023.1.0,60.06298217307046
#4A148C,#8E24AA,#BA68C8,#F3E5F5,#0D47A1,#000000,#64B5F6,#E3F2FD,purple,blue,l_up,clr2,high,left,#1E88E5,#2196F3,#1E88E5,#64B5F6,#1E88E5,blue,,,,,0,31,31,48,,,,right,0,1.0127721005119383,FID,1,2026-04-24_08h47.19.096,MCT,2023.1.0,60.06298217307046
#311B92,#5E35B1,#9575CD,#EDE7F6,#880E4F,#000000,#F06292,#FCE4EC,d_purple,pink,l_up,clr2,none,right,#F4511E,#D81B60,#D81B60,#F06292,#D81B60,d_orange,,,,,0,32,32,91,,,,right,1,1.0219508004374802,FID,1,2026-04-24_08h47.19.096,MCT,2023.1.0,60.06298217307046
#311B92,#EDE7F6,#5E35B1,#9575CD,#B71C1C,#000000,#E53935,#E57373,d_purple,red,l_rand2,clr2,low,right,#EF9A9A,#FFEBEE,#FFEBEE,#E53935,#FFEBEE,red,,,,,0,33,33,36,,,,left,0,0.6807399000972509,FID,1,2026-04-24_08h47.19.096,MCT,2023.1.0,60.06298217307046
#EFEBE9,#A1887F,#6D4C41,#3E2723,#E8F5E9,#000000,#43A047,#1B5E20,brown,green,l_down,clr2,high,left,#81C784,#A5D6A7,#81C784,#43A047,#81C784,green,,,,,0,34,34,1,,,,right,0,1.1611026003956795,FID,1,2026-04-24_08h47.19.096,MCT,2023.1.0,60.06298217307046
#43A047,#1B5E20,#E8F5E9,#81C784,#00897B,#004D40,#000000,#4DB6AC,green,teal,l_rand1,clr3,none,right,#E1F5FE,#E0F2F1,#004D40,#E0F2F1,#E0F2F1,l_blue,,,,,0,35,35,78,,,,left,0,0.775914600584656,FID,1,2026-04-24_08h47.19.096,MCT,2023.1.0,60.06298217307046
#3E2723,#6D4C41,#A1887F,#EFEBE9,#006064,#00ACC1,#000000,#E0F7FA,brown,cyan,l_up,clr3,low,left,#4DD0E1,#B2EBF2,#00ACC1,#4DD0E1,#4DD0E1,cyan,,,,,0,36,36,61,,,,right,0,1.026668000034988,FID,1,2026-04-24_08h47.19.096,MCT,2023.1.0,60.06298217307046
#33691E,#F1F8E9,#7CB342,#AED581,#0D47A1,#E3F2FD,#000000,#64B5F6,l_green,blue,l_rand2,clr3,low,left,#1E88E5,#42A5F5,#E3F2FD,#1E88E5,#1E88E5,blue,,,,,0,37,37,45,,,,left,1,1.211141800507903,FID,1,2026-04-24_08h47.19.096,MCT,2023.1.0,60.06298217307046
#039BE5,#01579B,#E1F5FE,#4FC3F7,#D81B60,#000000,#FCE4EC,#F06292,l_blue,pink,l_rand1,clr2,high,left,#880E4F,#AD1457,#880E4F,#FCE4EC,#880E4F,pink,,,,,0,38,38,17,,,,left,1,1.007373500149697,FID,1,2026-04-24_08h47.19.096,MCT,2023.1.0,60.06298217307046
#FFF8E1,#FFD54F,#FFB300,#FF6F00,#EFEBE9,#A1887F,#000000,#3E2723,amber,brown,l_down,clr3,low,left,#6D4C41,#8D6E63,#A1887F,#6D4C41,#6D4C41,brown,,,,,0,39,39,14,,,,left,1,1.2290603001601994,FID,1,2026-04-24_08h47.19.096,MCT,2023.1.0,60.06298217307046
#311B92,#5E35B1,#9575CD,#EDE7F6,#880E4F,#000000,#F06292,#FCE4EC,d_purple,pink,l_up,clr2,high,right,#E91E63,#D81B60,#D81B60,#F06292,#D81B60,pink,,,,,0,40,40,51,,,,right,1,0.7078598001971841,FID,1,2026-04-24_08h47.19.096,MCT,2023.1.0,60.06298217307046
#E8F5E9,#81C784,#43A047,#1B5E20,#FFEBEE,#000000,#E53935,#B71C1C,green,red,l_down,clr2,high,right,#EF9A9A,#E57373,#E57373,#E53935,#E57373,red,,,,,0,41,41,4,,,,right,1,0.6951195001602173,FID,1,2026-04-24_08h47.19.096,MCT,2023.1.0,60.06298217307046
#004D40,#00897B,#4DB6AC,#E0F2F1,#3E2723,#000000,#A1887F,#EFEBE9,teal,brown,l_up,clr2,low,left,#6D4C41,#4E342E,#6D4C41,#A1887F,#6D4C41,brown,,,,,0,42,42,53,,,,right,0,0.8560466999188066,FID,1,2026-04-24_08h47.19.096,MCT,2023.1.0,60.06298217307046
#F1F8E9,#AED581,#7CB342,#33691E,#FFF3E0,#000000,#FB8C00,#E65100,l_green,orange,l_down,clr2,low,left,#FFB74D,#FFE0B2,#FFB74D,#FB8C00,#FFB74D,orange,,,,,0,43,43,5,,,,left,1,0.5714916000142694,FID,1,2026-04-24_08h47.19.096,MCT,2023.1.0,60.06298217307046
#FB8C00,#E65100,#FFF3E0,#FFB74D,#FDD835,#000000,#FFFDE7,#FFF176,orange,yellow,l_rand1,clr2,none,left,#F57F17,#33691E,#F57F17,#FFFDE7,#F57F17,l_green,,,,,0,44,44,74,,,,left,1,0.771698800381273,FID,1,2026-04-24_08h47.19.096,MCT,2023.1.0,60.06298217307046
#D81B60,#880E4F,#FCE4EC,#F06292,#FDD835,#F57F17,#000000,#FFF176,pink,yellow,l_rand1,clr3,none,right,#FFF3E0,#FFFDE7,#F57F17,#FFFDE7,#FFFDE7,orange,,,,,0,45,45,77,,,,right,1,0.6729015000164509,FID,1,2026-04-24_08h47.19.096,MCT,2023.1.0,60.06298217307046
#FCE4EC,#F06292,#D81B60,#880E4F,#FBE9E7,#000000,#F4511E,#BF360C,pink,d_orange,l_down,clr2,high,right,#FFAB91,#FF8A65,#FF8A65,#F4511E,#FF8A65,d_orange,,,,,0,46,46,3,,,,right,1,0.5767336999997497,FID,1,2026-04-24_08h47.19.096,MCT,2023.1.0,60.06298217307046
#E65100,#FFF3E0,#FB8C00,#FFB74D,#004D40,#E0F2F1,#000000,#4DB6AC,orange,teal,l_rand2,clr3,low,left,#00897B,#00695C,#E0F2F1,#00897B,#00897B,teal,,,,,0,47,47,46,,,,right,0,0.6719010001979768,FID,1,2026-04-24_08h47.19.096,MCT,2023.1.0,60.06298217307046
#FFF8E1,#FFD54F,#FFB300,#FF6F00,#E8EAF6,#7986CB,#000000,#1A237E,amber,indigo,l_down,clr3,high,right,#3F51B5,#3949AB,#7986CB,#3949AB,#3949AB,indigo,,,,,0,48,48,10,,,,left,0,0.8982124007306993,FID,1,2026-04-24_08h47.19.096,MCT,2023.1.0,60.06298217307046
#E1F5FE,#4FC3F7,#039BE5,#01579B,#EDE7F6,#9575CD,#000000,#311B92,l_blue,d_purple,l_down,clr3,low,left,#5E35B1,#7E57C2,#9575CD,#5E35B1,#5E35B1,d_purple,,,,,0,49,49,11,,,,left,1,0.7863039001822472,FID,1,2026-04-24_08h47.19.096,MCT,2023.1.0,60.06298217307046
#EFEBE9,#A1887F,#6D4C41,#3E2723,#E8F5E9,#000000,#43A047,#1B5E20,brown,green,l_down,clr2,none,left,#81C784,#4DD0E1,#81C784,#43A047,#81C784,cyan,,,,,0,50,50,65,,,,left,1,0.5579829001799226,FID,1,2026-04-24_08h47.19.096,MCT,2023.1.0,60.06298217307046
#004D40,#E0F2F1,#00897B,#4DB6AC,#3E2723,#EFEBE9,#000000,#A1887F,teal,brown,l_rand2,clr3,high,right,#5D4037,#6D4C41,#EFEBE9,#6D4C41,#6D4C41,brown,,,,,0,51,51,41,,,,right,1,0.5706799002364278,FID,1,2026-04-24_08h47.19.096,MCT,2023.1.0,60.06298217307046
#BF360C,#F4511E,#FF8A65,#FBE9E7,#33691E,#7CB342,#000000,#F1F8E9,d_orange,l_green,l_up,clr3,high,right,#C5E1A5,#AED581,#7CB342,#AED581,#AED581,l_green,,,,,0,52,52,58,,,,right,1,0.7830493003129959,FID,1,2026-04-24_08h47.19.096,MCT,2023.1.0,60.06298217307046
#006064,#00ACC1,#4DD0E1,#E0F7FA,#01579B,#039BE5,#000000,#E1F5FE,cyan,l_blue,l_up,clr3,none,right,#4DB6AC,#4FC3F7,#039BE5,#4FC3F7,#4FC3F7,teal,,,,,0,53,53,94,,,,left,0,0.8981476007029414,FID,1,2026-04-24_08h47.19.096,MCT,2023.1.0,60.06298217307046
#43A047,#1B5E20,#E8F5E9,#81C784,#00897B,#004D40,#000000,#4DB6AC,green,teal,l_rand1,clr3,high,right,#B2DFDB,#E0F2F1,#004D40,#E0F2F1,#E0F2F1,teal,,,,,0,54,54,26,,,,right,1,1.2375032003037632,FID,1,2026-04-24_08h47.19.096,MCT,2023.1.0,60.06298217307046
#FF6F00,#FFF8E1,#FFB300,#FFD54F,#880E4F,#000000,#D81B60,#F06292,amber,pink,l_rand2,clr2,none,left,#FCE4EC,#EDE7F6,#FCE4EC,#D81B60,#FCE4EC,d_purple,,,,,0,55,55,83,,,,right,0,1.2129091005772352,FID,1,2026-04-24_08h47.19.096,MCT,2023.1.0,60.06298217307046
#F3E5F5,#BA68C8,#8E24AA,#4A148C,#FBE9E7,#FFB74D,#000000,#BF360C,purple,d_orange,l_down,clr3,low,left,#F4511E,#D84315,#FF8A65,#F4511E,#F4511E,d_orange,,,,,0,56,56,13,,,,left,1,0.8135649003088474,FID,1,2026-04-24_08h47.19.096,MCT,2023.1.0,60.06298217307046
#004D40,#E0F2F1,#00897B,#4DB6AC,#E65100,#000000,#FB8C00,#FFB74D,lime,orange,l_rand2,clr2,low,right,#FFCC80,#FFF3E0,#FFF3E0,#FB8C00,#FFF3E0,orange,,,,,0,57,57,37,,,,right,1,0.792505900375545,FID,1,2026-04-24_08h47.19.096,MCT,2023.1.0,60.06298217307046
#1A237E,#3949AB,#7986CB,#E8EAF6,#311B92,#5E35B1,#000000,#EDE7F6,indigo,d_purple,l_up,clr3,low,left,#9575CD,#673AB7,#5E35B1,#9575CD,#9575CD,d_purple,,,,,0,58,58,59,,,,left,1,0.5705091003328562,FID,1,2026-04-24_08h47.19.096,MCT,2023.1.0,60.06298217307046
#33691E,#7CB342,#AED581,#F1F8E9,#880E4F,#000000,#F06292,#FCE4EC,l_green,pink,l_up,clr2,none,left,#D81B60,#5E35B1,#D81B60,#F06292,#D81B60,d_purple,,,,,0,59,59,89,,,,left,1,0.7271266002207994,FID,1,2026-04-24_08h47.19.096,MCT,2023.1.0,60.06298217307046
#E8EAF6,#7986CB,#3949AB,#1A237E,#FFF3E0,#FFB74D,#000000,#E65100,indigo,orange,l_down,clr3,none,left,#FB8C00,#E53935,#FFB74D,#FB8C00,#FB8C00,red,,,,,0,60,60,69,,,,left,1,0.7911034002900124,FID,1,2026-04-24_08h47.19.096,MCT,2023.1.0,60.06298217307046
#880E4F,#D81B60,#F06292,#FCE4EC,#B71C1C,#000000,#E57373,#FFEBEE,pink,red,l_up,clr2,low,right,#EF5350,#E53935,#E53935,#E57373,#E53935,red,,,,,0,61,61,54,,,,right,1,0.8475062004290521,FID,1,2026-04-24_08h47.19.096,MCT,2023.1.0,60.06298217307046
#3949AB,#1A237E,#E8EAF6,#7986CB,#FB8C00,#000000,#FFF3E0,#FFB74D,indigo,orange,l_rand1,clr2,low,right,#F57C00,#E65100,#E65100,#FFF3E0,#E65100,orange,,,,,0,62,62,21,,,,right,1,0.6647944003343582,FID,1,2026-04-24_08h47.19.096,MCT,2023.1.0,60.06298217307046
#827717,#C0CA33,#DCE775,#F9FBE7,#004D40,#000000,#4DB6AC,#E0F2F1,lime,teal,l_up,clr2,high,right,#009688,#00897B,#00897B,#4DB6AC,#00897B,teal,,,,,0,63,63,50,,,,right,1,0.6770687005482614,FID,1,2026-04-24_08h47.19.096,MCT,2023.1.0,60.06298217307046
#F4511E,#BF360C,#FBE9E7,#FF8A65,#43A047,#1B5E20,#000000,#81C784,d_orange,green,l_rand1,clr3,low,left,#E8F5E9,#A5D6A7,#1B5E20,#E8F5E9,#E8F5E9,green,,,,,0,64,64,30,,,,right,0,0.5630968003533781,FID,1,2026-04-24_08h47.19.096,MCT,2023.1.0,60.06298217307046
#1B5E20,#43A047,#81C784,#E8F5E9,#004D40,#000000,#4DB6AC,#E0F2F1,green,teal,l_up,clr2,none,right,#7CB342,#00897B,#00897B,#4DB6AC,#00897B,l_green,,,,,0,65,65,92,,,,right,1,1.2061389004811645,FID,1,2026-04-24_08h47.19.096,MCT,2023.1.0,60.06298217307046
#880E4F,#FCE4EC,#D81B60,#F06292,#33691E,#000000,#7CB342,#AED581,pink,l_green,l_rand2,clr2,high,left,#F1F8E9,#DCEDC8,#F1F8E9,#7CB342,#F1F8E9,l_green,,,,,0,66,66,32,,,,left,1,0.4301060005091131,FID,1,2026-04-24_08h47.19.096,MCT,2023.1.0,60.06298217307046
#FF6F00,#FFF8E1,#FFB300,#FFD54F,#4A148C,#000000,#8E24AA,#BA68C8,amber,purple,l_rand2,clr2,high,right,#E1BEE7,#F3E5F5,#F3E5F5,#8E24AA,#F3E5F5,purple,,,,,0,67,67,35,,,,right,1,0.5745204999111593,FID,1,2026-04-24_08h47.19.096,MCT,2023.1.0,60.06298217307046
#E65100,#FB8C00,#FFB74D,#FFF3E0,#1A237E,#3949AB,#000000,#E8EAF6,orange,indigo,l_up,clr3,low,right,#7986CB,#3F51B5,#3949AB,#7986CB,#7986CB,indigo,,,,,0,68,68,63,,,,left,0,0.5438281004317105,FID,1,2026-04-24_08h47.19.096,MCT,2023.1.0,60.06298217307046
#BF360C,#F4511E,#FF8A65,#FBE9E7,#33691E,#7CB342,#000000,#F1F8E9,d_orange,l_green,l_up,clr3,none,right,#FFF176,#AED581,#7CB342,#AED581,#AED581,yellow,,,,,0,69,69,95,,,,right,1,0.5854110005311668,FID,1,2026-04-24_08h47.19.096,MCT,2023.1.0,60.06298217307046
#E8F5E9,#81C784,#43A047,#1B5E20,#FFEBEE,#000000,#E53935,#B71C1C,green,red,l_down,clr2,none,right,#FFB74D,#E57373,#E57373,#E53935,#E57373,orange,,,,,0,70,70,68,,,,left,0,1.1532386001199484,FID,1,2026-04-24_08h47.19.096,MCT,2023.1.0,60.06298217307046
#FDD835,#F57F17,#FFFDE7,#FFF176,#FFB300,#FF6F00,#000000,#FFD54F,yellow,amber,l_rand1,clr3,none,left,#FFF8E1,#F9FBE7,#FF6F00,#FFF8E1,#FFF8E1,lime,,,,,0,71,71,76,,,,right,0,0.64782420033589,FID,1,2026-04-24_08h47.19.096,MCT,2023.1.0,60.06298217307046
#1B5E20,#E8F5E9,#43A047,#81C784,#006064,#000000,#00ACC1,#4DD0E1,green,cyan,l_rand2,clr2,none,left,#E0F7FA,#E8F5E9,#E0F7FA,#00ACC1,#E0F7FA,green,,,,,0,72,72,82,,,,left,1,0.5456390003673732,FID,1,2026-04-24_08h47.19.096,MCT,2023.1.0,60.06298217307046
#827717,#C0CA33,#DCE775,#F9FBE7,#004D40,#000000,#4DB6AC,#E0F2F1,lime,teal,l_up,clr2,none,right,#039BE5,#00897B,#00897B,#4DB6AC,#00897B,l_blue,,,,,0,73,73,90,,,,right,1,0.6658244007267058,FID,1,2026-04-24_08h47.19.096,MCT,2023.1.0,60.06298217307046
#B71C1C,#FFEBEE,#E53935,#E57373,#1A237E,#E8EAF6,#000000,#7986CB,red,indigo,l_rand2,clr3,none,right,#8E24AA,#3949AB,#E8EAF6,#3949AB,#3949AB,purple,,,,,0,74,74,84,,,,left,0,0.5827376004308462,FID,1,2026-04-24_08h47.19.096,MCT,2023.1.0,60.06298217307046
#FF6F00,#FFB300,#FFD54F,#FFF8E1,#1A237E,#3949AB,#000000,#E8EAF6,amber,indigo,l_up,clr3,low,right,#C5CAE9,#7986CB,#3949AB,#7986CB,#7986CB,indigo,,,,,0,75,75,62,,,,left,0,0.9910614001564682,FID,1,2026-04-24_08h47.19.096,MCT,2023.1.0,60.06298217307046
#FBE9E7,#FF8A65,#F4511E,#BF360C,#F3E5F5,#BA68C8,#000000,#4A148C,d_orange,purple,l_down,clr3,low,right,#6A1B9A,#8E24AA,#BA68C8,#8E24AA,#8E24AA,purple,,,,,0,76,76,15,,,,left,0,0.7551468005403876,FID,1,2026-04-24_08h47.19.096,MCT,2023.1.0,60.06298217307046
#3E2723,#EFEBE9,#6D4C41,#A1887F,#0D47A1,#E3F2FD,#000000,#64B5F6,brown,blue,l_rand2,clr3,high,right,#2196F3,#1E88E5,#E3F2FD,#1E88E5,#1E88E5,blue,,,,,0,77,77,43,,,,right,1,1.0969647001475096,FID,1,2026-04-24_08h47.19.096,MCT,2023.1.0,60.06298217307046
#FFB300,#FF6F00,#FFF8E1,#FFD54F,#039BE5,#01579B,#000000,#4FC3F7,amber,l_blue,l_rand1,clr3,none,right,#E8EAF6,#E1F5FE,#01579B,#E1F5FE,#E1F5FE,indigo,,,,,0,78,78,79,,,,right,1,0.640771800186485,FID,1,2026-04-24_08h47.19.096,MCT,2023.1.0,60.06298217307046
#0D47A1,#E3F2FD,#1E88E5,#64B5F6,#4A148C,#000000,#8E24AA,#BA68C8,blue,purple,l_rand2,clr2,none,left,#F3E5F5,#FFEBEE,#F3E5F5,#8E24AA,#F3E5F5,red,,,,,0,79,79,81,,,,left,1,1.081159400753677,FID,1,2026-04-24_08h47.19.096,MCT,2023.1.0,60.06298217307046
#E0F2F1,#4DB6AC,#00897B,#004D40,#FFFDE7,#000000,#FDD835,#F57F17,teal,yellow,l_down,clr2,high,left,#FFF176,#FFF59D,#FFF176,#FDD835,#FFF176,yellow,,,,,0,80,80,0,,,,left,1,0.8190717999823391,FID,1,2026-04-24_08h47.19.096,MCT,2023.1.0,60.06298217307046
#1B5E20,#43A047,#81C784,#E8F5E9,#4A148C,#000000,#BA68C8,#F3E5F5,green,purple,l_up,clr2,low,right,#6A1B9A,#8E24AA,#8E24AA,#BA68C8,#8E24AA,purple,,,,,0,81,81,55,,,,right,1,0.9495477001182735,FID,1,2026-04-24_08h47.19.096,MCT,2023.1.0,60.06298217307046
#FFEBEE,#E57373,#E53935,#B71C1C,#FFFDE7,#000000,#FDD835,#F57F17,red,yellow,l_down,clr2,high,left,#FFF176,#FFEE58,#FFF176,#FDD835,#FFF176,yellow,,,,,0,82,82,2,,,,left,1,0.8891611006110907,FID,1,2026-04-24_08h47.19.096,MCT,2023.1.0,60.06298217307046
#FB8C00,#E65100,#FFF3E0,#FFB74D,#FDD835,#000000,#FFFDE7,#FFF176,orange,yellow,l_rand1,clr2,high,left,#F57F17,#F9A825,#F57F17,#FFFDE7,#F57F17,yellow,,,,,0,83,83,18,,,,right,0,0.5693570002913475,FID,1,2026-04-24_08h47.19.096,MCT,2023.1.0,60.06298217307046
#FFEBEE,#E57373,#E53935,#B71C1C,#FFFDE7,#000000,#FDD835,#F57F17,red,yellow,l_down,clr2,none,left,#FFF176,#AED581,#FFF176,#FDD835,#FFF176,l_green,,,,,0,84,84,66,,,,left,1,0.5661936001852155,FID,1,2026-04-24_08h47.19.096,MCT,2023.1.0,60.06298217307046
#8E24AA,#4A148C,#F3E5F5,#BA68C8,#5E35B1,#000000,#EDE7F6,#9575CD,purple,d_purple,l_rand1,clr2,none,left,#311B92,#880E4F,#311B92,#EDE7F6,#311B92,pink,,,,,0,85,85,72,,,,right,0,0.4840372004546225,FID,1,2026-04-24_08h47.19.096,MCT,2023.1.0,60.06298217307046
#5E35B1,#311B92,#EDE7F6,#9575CD,#6D4C41,#3E2723,#000000,#A1887F,d_purple,brown,l_rand1,clr3,low,left,#EFEBE9,#BCAAA4,#3E2723,#EFEBE9,#EFEBE9,brown,,,,,0,86,86,28,,,,right,0,0.45521510066464543,FID,1,2026-04-24_08h47.19.096,MCT,2023.1.0,60.06298217307046
#006064,#00ACC1,#4DD0E1,#E0F7FA,#01579B,#039BE5,#000000,#E1F5FE,cyan,l_blue,l_up,clr3,high,right,#81D4FA,#4FC3F7,#039BE5,#4FC3F7,#4FC3F7,l_blue,,,,,0,87,87,57,,,,left,0,0.5560489003546536,FID,1,2026-04-24_08h47.19.096,MCT,2023.1.0,60.06298217307046
#E8EAF6,#7986CB,#3949AB,#1A237E,#FFF3E0,#FFB74D,#000000,#E65100,indigo,orange,l_down,clr3,high,left,#FB8C00,#FF9800,#FFB74D,#FB8C00,#FB8C00,orange,,,,,0,88,88,8,,,,right,0,0.5181188001297414,FID,1,2026-04-24_08h47.19.096,MCT,2023.1.0,60.06298217307046
#004D40,#E0F2F1,#00897B,#4DB6AC,#BF360C,#FBE9E7,#000000,#FF8A65,teal,d_orange,l_rand2,clr3,low,right,#D84315,#F4511E,#FBE9E7,#F4511E,#F4511E,d_orange,,,,,0,89,89,47,,,,right,1,0.5321380007080734,FID,1,2026-04-24_08h47.19.096,MCT,2023.1.0,60.06298217307046
#1B5E20,#E8F5E9,#43A047,#81C784,#006064,#000000,#00ACC1,#4DD0E1,green,cyan,l_rand2,clr2,high,left,#E0F7FA,#B2EBF2,#E0F7FA,#00ACC1,#E0F7FA,cyan,,,,,0,90,90,33,,,,right,0,0.5139051005244255,FID,1,2026-04-24_08h47.19.096,MCT,2023.1.0,60.06298217307046
#F57F17,#FFFDE7,#FDD835,#FFF176,#BF360C,#FBE9E7,#000000,#FF8A65,yellow,d_orange,l_rand2,clr3,none,right,#D81B60,#F4511E,#FBE9E7,#F4511E,#F4511E,pink,,,,,0,91,91,86,,,,right,1,0.5758390002883971,FID,1,2026-04-24_08h47.19.096,MCT,2023.1.0,60.06298217307046
#FFEBEE,#E57373,#E53935,#B71C1C,#E1F5FE,#000000,#039BE5,#01579B,red,l_blue,l_down,clr2,none,left,#4FC3F7,#7986CB,#4FC3F7,#039BE5,#4FC3F7,indigo,,,,,0,92,92,64,,,,left,1,0.528609300032258,FID,1,2026-04-24_08h47.19.096,MCT,2023.1.0,60.06298217307046
#00897B,#004D40,#E0F2F1,#4DB6AC,#3949AB,#1A237E,#000000,#7986CB,lime,indigo,l_rand1,clr3,low,left,#E8EAF6,#9FA8DA,#1A237E,#E8EAF6,#E8EAF6,indigo,,,,,0,93,93,29,,,,left,1,0.5323397000320256,FID,1,2026-04-24_08h47.19.096,MCT,2023.1.0,60.06298217307046
#FDD835,#F57F17,#FFFDE7,#FFF176,#F4511E,#000000,#FBE9E7,#FF8A65,yellow,d_orange,l_rand1,clr2,low,left,#BF360C,#E64A19,#BF360C,#FBE9E7,#BF360C,d_orange,,,,,0,94,94,22,,,,right,0,0.6013700999319553,FID,1,2026-04-24_08h47.19.096,MCT,2023.1.0,60.06298217307046
#6D4C41,#3E2723,#EFEBE9,#A1887F,#00ACC1,#000000,#E0F7FA,#4DD0E1,brown,cyan,l_rand1,clr2,low,right,#0097A7,#006064,#006064,#E0F7FA,#006064,cyan,,,,,0,95,95,23,,,,right,1,0.9201376005075872,FID,1,2026-04-24_08h47.19.096,MCT,2023.1.0,60.06298217307046
