imagefile	stimfile	corrAns	MRdir	angle	training.thisRepN	training.thisTrialN	training.thisN	training.thisIndex	mentalrot_trials.thisRepN	mentalrot_trials.thisTrialN	mentalrot_trials.thisN	mentalrot_trials.thisIndex	blank.started	mr_answ_2.started	mr_answ_2.keys	mr_answ_2.corr	mr_answ_2.rt	blank.stopped	mr_answ.started	mr_answ.keys	mr_answ.corr	mr_answ.rt	byebye_text.started	byebye_text.stopped	participant	session	date	expName	psychopyVersion	frameRate	...32
mr_images/9_b.png	mr_images/9_b_z_315.png	left	ccw	45	0	0	0	207	NA	NA	NA	NA	68.61802230007015	69.08639750001021	right	0	1.776246300083585	NA	NA	NA	NA	NA	NA	NA	dkv	002	2026-02-10_15h31.46.680	MR	2023.1.0	60.0515482500401	NA
mr_images/6_a.png	mr_images/6_b_z_135.png	right	cw	135	0	1	1	152	NA	NA	NA	NA	70.88842910004314	71.43409540003631	left	0	1.464736699941568	71.43409540003631	NA	NA	NA	NA	NA	NA	dkv	002	2026-02-10_15h31.46.680	MR	2023.1.0	60.0515482500401	NA
mr_images/12_a.png	mr_images/12_b_z_225.png	right	ccw	135	0	2	2	58	NA	NA	NA	NA	72.91730510001071	73.45043830003124	right	1	2.801407399936579	73.45043830003124	NA	NA	NA	NA	NA	NA	dkv	002	2026-02-10_15h31.46.680	MR	2023.1.0	60.0515482500401	NA
mr_images/6_a.png	mr_images/6_a_z_270.png	left	ccw	90	0	3	3	151	NA	NA	NA	NA	76.28337930003181	76.82048920006491	right	0	3.3521586999995634	76.82048920006491	NA	NA	NA	NA	NA	NA	dkv	002	2026-02-10_15h31.46.680	MR	2023.1.0	60.0515482500401	NA
mr_images/11_a.png	mr_images/11_b_z_270.png	right	ccw	90	0	4	4	30	NA	NA	NA	NA	80.20376090006903	80.73392360005528	left	0	2.28481920005288	80.73392360005528	NA	NA	NA	NA	NA	NA	dkv	002	2026-02-10_15h31.46.680	MR	2023.1.0	60.0515482500401	NA
mr_images/12_a.png	mr_images/12_b_z_315.png	right	ccw	45	NA	NA	NA	NA	0	0	0	50	140.25765809998848	NA	NA	NA	NA	NA	140.76136670005508	right	1	2.0097039999673143	NA	NA	dkv	002	2026-02-10_15h31.46.680	MR	2023.1.0	60.0515482500401	NA
mr_images/5_b.png	mr_images/5_a_z_225.png	right	ccw	135	NA	NA	NA	NA	0	1	1	142	142.79509180004243	NA	NA	NA	NA	143.32448080007453	143.32448080007453	right	1	2.7648618000093848	NA	NA	dkv	002	2026-02-10_15h31.46.680	MR	2023.1.0	60.0515482500401	NA
mr_images/6_b.png	mr_images/6_a_z_135.png	right	cw	135	NA	NA	NA	NA	0	2	2	164	146.10710460005794	NA	NA	NA	NA	146.6439760000212	146.6439760000212	left	0	1.9749095999868589	NA	NA	dkv	002	2026-02-10_15h31.46.680	MR	2023.1.0	60.0515482500401	NA
mr_images/3_a.png	mr_images/3_a_z_90.png	left	cw	90	NA	NA	NA	NA	0	3	3	77	148.64428540004883	NA	NA	NA	NA	149.1729058000492	149.1729058000492	right	0	1.953285399940796	NA	NA	dkv	002	2026-02-10_15h31.46.680	MR	2023.1.0	60.0515482500401	NA
mr_images/3_b.png	mr_images/3_b_z_45.png	left	cw	45	NA	NA	NA	NA	0	4	4	85	151.1563552999869	NA	NA	NA	NA	151.69300169998314	151.69300169998314	left	1	3.464743300108239	NA	NA	dkv	002	2026-02-10_15h31.46.680	MR	2023.1.0	60.0515482500401	NA
mr_images/11_a.png	mr_images/11_a_z_225.png	left	ccw	135	NA	NA	NA	NA	0	5	5	35	155.1767101000296	NA	NA	NA	NA	155.72237329999916	155.72237329999916	left	1	2.8988065000157803	NA	NA	dkv	002	2026-02-10_15h31.46.680	MR	2023.1.0	60.0515482500401	NA
mr_images/7_b.png	mr_images/7_b_z_45.png	left	cw	45	NA	NA	NA	NA	0	6	6	181	158.63862860004883	NA	NA	NA	NA	159.17575560009573	159.17575560009573	right	0	2.188633699901402	NA	NA	dkv	002	2026-02-10_15h31.46.680	MR	2023.1.0	60.0515482500401	NA
mr_images/7_a.png	mr_images/7_a_z_225.png	left	ccw	135	NA	NA	NA	NA	0	7	7	179	161.3925898000598	NA	NA	NA	NA	161.93819870008156	161.93819870008156	right	0	3.10679180000443	NA	NA	dkv	002	2026-02-10_15h31.46.680	MR	2023.1.0	60.0515482500401	NA
mr_images/1_b.png	mr_images/1_a_z_225.png	right	ccw	135	NA	NA	NA	NA	0	8	8	22	165.07101130008232	NA	NA	NA	NA	165.60435450007208	165.60435450007208	left	0	3.423983299988322	NA	NA	dkv	002	2026-02-10_15h31.46.680	MR	2023.1.0	60.0515482500401	NA
mr_images/7_b.png	mr_images/7_a_z_90.png	right	cw	90	NA	NA	NA	NA	0	9	9	184	169.053850300028	NA	NA	NA	NA	169.5870883000316	169.5870883000316	None	0	NA	NA	NA	dkv	002	2026-02-10_15h31.46.680	MR	2023.1.0	60.0515482500401	NA
mr_images/9_a.png	mr_images/9_b_z_270.png	right	ccw	90	NA	NA	NA	NA	0	10	10	198	174.5698282000376	NA	NA	NA	NA	NA	175.1066097000148	right	1	2.770790299982764	NA	NA	dkv	002	2026-02-10_15h31.46.680	MR	2023.1.0	60.0515482500401	NA
mr_images/9_b.png	mr_images/9_b_z_45.png	left	cw	45	NA	NA	NA	NA	0	11	11	205	177.90684720000718	NA	NA	NA	NA	178.452554800082	178.452554800082	right	0	2.240128400037065	NA	NA	dkv	002	2026-02-10_15h31.46.680	MR	2023.1.0	60.0515482500401	NA
mr_images/6_b.png	mr_images/6_a_z_225.png	right	ccw	135	NA	NA	NA	NA	0	12	12	166	180.7188320000423	NA	NA	NA	NA	181.25208960007876	181.25208960007876	left	0	1.829344999976456	NA	NA	dkv	002	2026-02-10_15h31.46.680	MR	2023.1.0	60.0515482500401	NA
mr_images/12_a.png	mr_images/12_a_z_135.png	left	cw	135	NA	NA	NA	NA	0	13	13	57	183.1018672999926	NA	NA	NA	NA	183.6351940000895	183.6351940000895	left	1	2.8707095000427216	NA	NA	dkv	002	2026-02-10_15h31.46.680	MR	2023.1.0	60.0515482500401	NA
mr_images/12_a.png	mr_images/12_a_z_315.png	left	ccw	45	NA	NA	NA	NA	0	14	14	51	186.5348052000627	NA	NA	NA	NA	187.0717262000544	187.0717262000544	left	1	2.1690986999310553	NA	NA	dkv	002	2026-02-10_15h31.46.680	MR	2023.1.0	60.0515482500401	NA
mr_images/4_b.png	mr_images/4_a_z_270.png	right	ccw	90	NA	NA	NA	NA	0	15	15	114	189.2720893000951	NA	NA	NA	NA	189.81769950001035	189.81769950001035	left	0	2.178631499991752	NA	NA	dkv	002	2026-02-10_15h31.46.680	MR	2023.1.0	60.0515482500401	NA
mr_images/12_a.png	mr_images/12_a_z_225.png	left	ccw	135	NA	NA	NA	NA	0	16	16	59	192.01731959998145	NA	NA	NA	NA	192.56731140008196	192.56731140008196	right	0	1.653045400045812	NA	NA	dkv	002	2026-02-10_15h31.46.680	MR	2023.1.0	60.0515482500401	NA
mr_images/9_a.png	mr_images/9_a_z_225.png	left	ccw	135	NA	NA	NA	NA	0	17	17	203	194.2504815000575	NA	NA	NA	NA	194.78577140008565	194.78577140008565	right	0	2.9658137999940664	NA	NA	dkv	002	2026-02-10_15h31.46.680	MR	2023.1.0	60.0515482500401	NA
mr_images/9_a.png	mr_images/9_b_z_45.png	right	cw	45	NA	NA	NA	NA	0	18	18	192	197.77090520004276	NA	NA	NA	NA	198.30212970008145	198.30212970008145	left	0	2.6864505999255925	NA	NA	dkv	002	2026-02-10_15h31.46.680	MR	2023.1.0	60.0515482500401	NA
mr_images/3_a.png	mr_images/3_b_z_315.png	right	ccw	45	NA	NA	NA	NA	0	19	19	74	201.0203622999834	NA	NA	NA	NA	201.56694280006923	201.56694280006923	right	1	2.1643214999930933	NA	NA	dkv	002	2026-02-10_15h31.46.680	MR	2023.1.0	60.0515482500401	NA
mr_images/1_a.png	mr_images/1_a_z_45.png	left	cw	45	NA	NA	NA	NA	0	20	20	1	203.74895070004277	NA	NA	NA	NA	204.2877063000342	204.2877063000342	right	0	3.397727799951099	NA	NA	dkv	002	2026-02-10_15h31.46.680	MR	2023.1.0	60.0515482500401	NA
mr_images/12_a.png	mr_images/12_a_z_45.png	left	cw	45	NA	NA	NA	NA	0	21	21	49	207.70273060002364	NA	NA	NA	NA	208.24843330006115	208.24843330006115	left	1	2.5788896000012755	NA	NA	dkv	002	2026-02-10_15h31.46.680	MR	2023.1.0	60.0515482500401	NA
mr_images/3_a.png	mr_images/3_a_z_315.png	left	ccw	45	NA	NA	NA	NA	0	22	22	75	210.84808900009375	NA	NA	NA	NA	211.38131750002503	211.38131750002503	right	0	3.5865907999686897	NA	NA	dkv	002	2026-02-10_15h31.46.680	MR	2023.1.0	60.0515482500401	NA
mr_images/1_b.png	mr_images/1_b_z_225.png	left	ccw	135	NA	NA	NA	NA	0	23	23	23	214.9974221000448	NA	NA	NA	NA	215.5473834000295	215.5473834000295	left	1	3.3625730999046937	NA	NA	dkv	002	2026-02-10_15h31.46.680	MR	2023.1.0	60.0515482500401	NA
mr_images/1_a.png	mr_images/1_a_z_315.png	left	ccw	45	NA	NA	NA	NA	0	24	24	3	218.93024930008687	NA	NA	NA	NA	219.46577840007376	219.46577840007376	right	0	1.8650030000135305	NA	NA	dkv	002	2026-02-10_15h31.46.680	MR	2023.1.0	60.0515482500401	NA
mr_images/7_b.png	mr_images/7_b_z_225.png	left	ccw	135	NA	NA	NA	NA	0	25	25	191	221.3508369000629	NA	NA	NA	NA	221.8965204000706	221.8965204000706	right	0	2.777371700038202	NA	NA	dkv	002	2026-02-10_15h31.46.680	MR	2023.1.0	60.0515482500401	NA
mr_images/6_b.png	mr_images/6_b_z_270.png	left	ccw	90	NA	NA	NA	NA	0	26	26	163	224.69608930009417	NA	NA	NA	NA	225.23268820007797	225.23268820007797	right	0	3.325606699916534	NA	NA	dkv	002	2026-02-10_15h31.46.680	MR	2023.1.0	60.0515482500401	NA
mr_images/5_b.png	mr_images/5_b_z_270.png	left	ccw	90	NA	NA	NA	NA	0	27	27	139	228.58312820002905	NA	NA	NA	NA	229.11285170004703	229.11285170004703	right	0	3.4800940999994054	NA	NA	dkv	002	2026-02-10_15h31.46.680	MR	2023.1.0	60.0515482500401	NA
mr_images/9_a.png	mr_images/9_b_z_135.png	right	cw	135	NA	NA	NA	NA	0	28	28	200	232.61187970009632	NA	NA	NA	NA	233.15027740004007	233.15027740004007	left	0	1.7542731000576168	NA	NA	dkv	002	2026-02-10_15h31.46.680	MR	2023.1.0	60.0515482500401	NA
mr_images/1_b.png	mr_images/1_a_z_270.png	right	ccw	90	NA	NA	NA	NA	0	29	29	18	234.93219540000428	NA	NA	NA	NA	235.46493130002636	235.46493130002636	left	0	2.574337900034152	NA	NA	dkv	002	2026-02-10_15h31.46.680	MR	2023.1.0	60.0515482500401	NA
mr_images/1_a.png	mr_images/1_a_z_270.png	left	ccw	90	NA	NA	NA	NA	0	30	30	7	238.0651804000372	NA	NA	NA	NA	238.59411940001883	238.59411940001883	right	0	2.016434899996966	NA	NA	dkv	002	2026-02-10_15h31.46.680	MR	2023.1.0	60.0515482500401	NA
mr_images/6_b.png	mr_images/6_b_z_45.png	left	cw	45	NA	NA	NA	NA	0	31	31	157	240.62736410007344	NA	NA	NA	NA	241.1660120000597	241.1660120000597	right	0	2.4106336999684572	NA	NA	dkv	002	2026-02-10_15h31.46.680	MR	2023.1.0	60.0515482500401	NA
mr_images/12_b.png	mr_images/12_a_z_315.png	right	ccw	45	NA	NA	NA	NA	0	32	32	62	243.5977305000415	NA	NA	NA	NA	244.1434785000747	244.1434785000747	left	0	3.0591367000015453	NA	NA	dkv	002	2026-02-10_15h31.46.680	MR	2023.1.0	60.0515482500401	NA
mr_images/1_b.png	mr_images/1_b_z_315.png	left	ccw	45	NA	NA	NA	NA	0	33	33	15	247.2266382999951	NA	NA	NA	NA	247.76312120002697	247.76312120002697	right	0	2.566986799938604	NA	NA	dkv	002	2026-02-10_15h31.46.680	MR	2023.1.0	60.0515482500401	NA
mr_images/11_b.png	mr_images/11_b_z_315.png	left	ccw	45	NA	NA	NA	NA	0	34	34	39	250.34678810008336	NA	NA	NA	NA	250.89245980000123	250.89245980000123	right	0	2.8738474000710994	NA	NA	dkv	002	2026-02-10_15h31.46.680	MR	2023.1.0	60.0515482500401	NA
mr_images/6_b.png	mr_images/6_a_z_270.png	right	ccw	90	NA	NA	NA	NA	0	35	35	162	253.79206110001545	NA	NA	NA	NA	254.3086556000635	254.3086556000635	left	0	2.4171518000075594	NA	NA	dkv	002	2026-02-10_15h31.46.680	MR	2023.1.0	60.0515482500401	NA
mr_images/5_a.png	mr_images/5_a_z_45.png	left	cw	45	NA	NA	NA	NA	0	36	36	121	256.7584141000407	NA	NA	NA	NA	257.2965387000004	257.2965387000004	right	0	2.817422899999656	NA	NA	dkv	002	2026-02-10_15h31.46.680	MR	2023.1.0	60.0515482500401	NA
mr_images/5_b.png	mr_images/5_b_z_45.png	left	cw	45	NA	NA	NA	NA	0	37	37	133	260.14543670008425	NA	NA	NA	NA	260.6744918000186	260.6744918000186	right	0	2.437932200031355	NA	NA	dkv	002	2026-02-10_15h31.46.680	MR	2023.1.0	60.0515482500401	NA
mr_images/9_b.png	mr_images/9_a_z_225.png	right	ccw	135	NA	NA	NA	NA	0	38	38	214	263.19085190002806	NA	NA	NA	NA	NA	263.72407190001104	left	0	3.239604100002907	NA	NA	dkv	002	2026-02-10_15h31.46.680	MR	2023.1.0	60.0515482500401	NA
mr_images/7_a.png	mr_images/7_b_z_90.png	right	cw	90	NA	NA	NA	NA	0	39	39	172	266.9903731000377	NA	NA	NA	NA	267.5234582000412	267.5234582000412	left	0	3.24980480002705	NA	NA	dkv	002	2026-02-10_15h31.46.680	MR	2023.1.0	60.0515482500401	NA
mr_images/9_b.png	mr_images/9_a_z_45.png	right	cw	45	NA	NA	NA	NA	0	40	40	204	270.78990139998496	NA	NA	NA	NA	271.3396878000349	271.3396878000349	right	1	2.8210093999514356	NA	NA	dkv	002	2026-02-10_15h31.46.680	MR	2023.1.0	60.0515482500401	NA
mr_images/11_a.png	mr_images/11_a_z_90.png	left	cw	90	NA	NA	NA	NA	0	41	41	29	274.18935960007366	NA	NA	NA	NA	274.7265477000037	274.7265477000037	right	0	2.10229419998359	NA	NA	dkv	002	2026-02-10_15h31.46.680	MR	2023.1.0	60.0515482500401	NA
mr_images/5_b.png	mr_images/5_a_z_45.png	right	cw	45	NA	NA	NA	NA	0	42	42	132	276.8598342000041	NA	NA	NA	NA	277.3887601000024	277.3887601000024	right	1	3.041039100033231	NA	NA	dkv	002	2026-02-10_15h31.46.680	MR	2023.1.0	60.0515482500401	NA
mr_images/5_a.png	mr_images/5_b_z_135.png	right	cw	135	NA	NA	NA	NA	0	43	43	128	280.45498700009193	NA	NA	NA	NA	280.98822910001036	280.98822910001036	right	1	2.670995800057426	NA	NA	dkv	002	2026-02-10_15h31.46.680	MR	2023.1.0	60.0515482500401	NA
mr_images/1_a.png	mr_images/1_a_z_90.png	left	cw	90	NA	NA	NA	NA	0	44	44	5	283.6879551000893	NA	NA	NA	NA	284.22573340008967	284.22573340008967	right	0	3.1182628999231383	NA	NA	dkv	002	2026-02-10_15h31.46.680	MR	2023.1.0	60.0515482500401	NA
mr_images/4_a.png	mr_images/4_b_z_315.png	right	ccw	45	NA	NA	NA	NA	0	45	45	98	287.37499859998934	NA	NA	NA	NA	287.9374693999998	287.9374693999998	left	0	1.981887400033884	NA	NA	dkv	002	2026-02-10_15h31.46.680	MR	2023.1.0	60.0515482500401	NA
mr_images/5_a.png	mr_images/5_a_z_90.png	left	cw	90	NA	NA	NA	NA	0	46	46	125	289.937052500085	NA	NA	NA	NA	290.47248039999977	290.47248039999977	right	0	3.6466712000546977	NA	NA	dkv	002	2026-02-10_15h31.46.680	MR	2023.1.0	60.0515482500401	NA
mr_images/9_b.png	mr_images/9_a_z_315.png	right	ccw	45	NA	NA	NA	NA	0	47	47	206	294.14077699999325	NA	NA	NA	NA	294.6864899999928	294.6864899999928	left	0	2.017647400032729	NA	NA	dkv	002	2026-02-10_15h31.46.680	MR	2023.1.0	60.0515482500401	NA
mr_images/12_a.png	mr_images/12_b_z_45.png	right	cw	45	NA	NA	NA	NA	0	48	48	48	296.7360859999899	NA	NA	NA	NA	297.2861327000428	297.2861327000428	left	0	1.6914955000393093	NA	NA	dkv	002	2026-02-10_15h31.46.680	MR	2023.1.0	60.0515482500401	NA
mr_images/12_a.png	mr_images/12_b_z_90.png	right	cw	90	NA	NA	NA	NA	0	49	49	52	299.00248370005284	NA	NA	NA	NA	299.5230885000201	299.5230885000201	right	1	2.346190999960527	NA	NA	dkv	002	2026-02-10_15h31.46.680	MR	2023.1.0	60.0515482500401	NA
mr_images/3_b.png	mr_images/3_b_z_225.png	left	ccw	135	NA	NA	NA	NA	0	50	50	95	301.8896781000076	NA	NA	NA	NA	302.4186449000845	302.4186449000845	right	0	2.3972950000315905	NA	NA	dkv	002	2026-02-10_15h31.46.680	MR	2023.1.0	60.0515482500401	NA
mr_images/5_b.png	mr_images/5_a_z_315.png	right	ccw	45	NA	NA	NA	NA	0	51	51	134	304.83519430004526	NA	NA	NA	NA	305.37219430005644	305.37219430005644	left	0	1.6239161000121385	NA	NA	dkv	002	2026-02-10_15h31.46.680	MR	2023.1.0	60.0515482500401	NA
mr_images/9_b.png	mr_images/9_b_z_315.png	left	ccw	45	NA	NA	NA	NA	0	52	52	207	307.022258699988	NA	NA	NA	NA	307.55135190009605	307.55135190009605	right	0	3.2566403000382707	NA	NA	dkv	002	2026-02-10_15h31.46.680	MR	2023.1.0	60.0515482500401	NA
mr_images/7_b.png	mr_images/7_b_z_90.png	left	cw	90	NA	NA	NA	NA	0	53	53	185	310.83417260006536	NA	NA	NA	NA	311.36749400000554	311.36749400000554	right	0	2.953233000007458	NA	NA	dkv	002	2026-02-10_15h31.46.680	MR	2023.1.0	60.0515482500401	NA
mr_images/9_b.png	mr_images/9_b_z_135.png	left	cw	135	NA	NA	NA	NA	0	54	54	213	314.35038240009453	NA	NA	NA	NA	314.8835896999808	314.8835896999808	left	1	2.17981600004714	NA	NA	dkv	002	2026-02-10_15h31.46.680	MR	2023.1.0	60.0515482500401	NA
mr_images/4_a.png	mr_images/4_a_z_270.png	left	ccw	90	NA	NA	NA	NA	0	55	55	103	317.08337730006315	NA	NA	NA	NA	317.61660010006744	317.61660010006744	right	0	1.8291259999386968	NA	NA	dkv	002	2026-02-10_15h31.46.680	MR	2023.1.0	60.0515482500401	NA
mr_images/9_a.png	mr_images/9_a_z_45.png	left	cw	45	NA	NA	NA	NA	0	56	56	193	319.4662631000392	NA	NA	NA	NA	319.9996200000169	319.9996200000169	right	0	3.1177081000059843	NA	NA	dkv	002	2026-02-10_15h31.46.680	MR	2023.1.0	60.0515482500401	NA
mr_images/7_b.png	mr_images/7_a_z_315.png	right	ccw	45	NA	NA	NA	NA	0	57	57	182	323.1491288000252	NA	NA	NA	NA	323.68428580008913	323.68428580008913	left	0	1.8039434999227524	NA	NA	dkv	002	2026-02-10_15h31.46.680	MR	2023.1.0	60.0515482500401	NA
mr_images/5_b.png	mr_images/5_b_z_225.png	left	ccw	135	NA	NA	NA	NA	0	58	58	143	325.51971660007257	NA	NA	NA	NA	326.05461260001175	326.05461260001175	right	0	2.837914300034754	NA	NA	dkv	002	2026-02-10_15h31.46.680	MR	2023.1.0	60.0515482500401	NA
mr_images/5_b.png	mr_images/5_b_z_90.png	left	cw	90	NA	NA	NA	NA	0	59	59	137	328.9192181000253	NA	NA	NA	NA	329.46493680006824	329.46493680006824	right	0	3.1341891000047326	NA	NA	dkv	002	2026-02-10_15h31.46.680	MR	2023.1.0	60.0515482500401	NA
mr_images/6_b.png	mr_images/6_a_z_90.png	right	cw	90	NA	NA	NA	NA	0	60	60	160	332.63110870006494	NA	NA	NA	NA	333.1683054000605	333.1683054000605	right	1	3.7607343000127	NA	NA	dkv	002	2026-02-10_15h31.46.680	MR	2023.1.0	60.0515482500401	NA
mr_images/7_b.png	mr_images/7_a_z_225.png	right	ccw	135	NA	NA	NA	NA	0	61	61	190	336.95141530002	NA	NA	NA	NA	337.4805637000827	337.4805637000827	left	0	2.9918397000292316	NA	NA	dkv	002	2026-02-10_15h31.46.680	MR	2023.1.0	60.0515482500401	NA
mr_images/6_a.png	mr_images/6_b_z_315.png	right	ccw	45	NA	NA	NA	NA	0	62	62	146	340.4966802999843	NA	NA	NA	NA	341.0335703000892	341.0335703000892	left	0	2.024591499939561	NA	NA	dkv	002	2026-02-10_15h31.46.680	MR	2023.1.0	60.0515482500401	NA
mr_images/7_a.png	mr_images/7_b_z_45.png	right	cw	45	NA	NA	NA	NA	0	63	63	168	343.0840025000507	NA	NA	NA	NA	343.6129315000726	343.6129315000726	left	0	2.4301960000302643	NA	NA	dkv	002	2026-02-10_15h31.46.680	MR	2023.1.0	60.0515482500401	NA
mr_images/3_b.png	mr_images/3_a_z_270.png	right	ccw	90	NA	NA	NA	NA	0	64	64	90	346.06264190003276	NA	NA	NA	NA	346.6000992000336	346.6000992000336	left	0	2.467051699990406	NA	NA	dkv	002	2026-02-10_15h31.46.680	MR	2023.1.0	60.0515482500401	NA
mr_images/9_b.png	mr_images/9_a_z_90.png	right	cw	90	NA	NA	NA	NA	0	65	65	208	349.083205300034	NA	NA	NA	NA	349.6120044999989	349.6120044999989	right	1	2.456169700017199	NA	NA	dkv	002	2026-02-10_15h31.46.680	MR	2023.1.0	60.0515482500401	NA
mr_images/6_a.png	mr_images/6_a_z_90.png	left	cw	90	NA	NA	NA	NA	0	66	66	149	352.09527460008394	NA	NA	NA	NA	352.62839980004355	352.62839980004355	right	0	2.745484299957752	NA	NA	dkv	002	2026-02-10_15h31.46.680	MR	2023.1.0	60.0515482500401	NA
mr_images/4_b.png	mr_images/4_b_z_135.png	left	cw	135	NA	NA	NA	NA	0	67	67	117	355.39485460007563	NA	NA	NA	NA	355.94470310001634	355.94470310001634	right	0	2.849471899913624	NA	NA	dkv	002	2026-02-10_15h31.46.680	MR	2023.1.0	60.0515482500401	NA
mr_images/12_b.png	mr_images/12_b_z_45.png	left	cw	45	NA	NA	NA	NA	0	68	68	61	358.81083420000505	NA	NA	NA	NA	359.3440814000787	359.3440814000787	right	0	3.1709699999773875	NA	NA	dkv	002	2026-02-10_15h31.46.680	MR	2023.1.0	60.0515482500401	NA
mr_images/11_b.png	mr_images/11_b_z_45.png	left	cw	45	NA	NA	NA	NA	0	69	69	37	362.5437276000157	NA	NA	NA	NA	363.08044260006864	363.08044260006864	right	0	2.8822705999482423	NA	NA	dkv	002	2026-02-10_15h31.46.680	MR	2023.1.0	60.0515482500401	NA
mr_images/1_a.png	mr_images/1_b_z_90.png	right	cw	90	NA	NA	NA	NA	0	70	70	4	365.9808244000887	NA	NA	NA	NA	366.5263952000532	366.5263952000532	right	1	3.6977877999888737	NA	NA	dkv	002	2026-02-10_15h31.46.680	MR	2023.1.0	60.0515482500401	NA
mr_images/4_a.png	mr_images/4_a_z_135.png	left	cw	135	NA	NA	NA	NA	0	71	71	105	370.24261970003136	NA	NA	NA	NA	370.7802806000691	370.7802806000691	right	0	2.401422599912621	NA	NA	dkv	002	2026-02-10_15h31.46.680	MR	2023.1.0	60.0515482500401	NA
mr_images/7_b.png	mr_images/7_b_z_135.png	left	cw	135	NA	NA	NA	NA	0	72	72	189	373.2131626000628	NA	NA	NA	NA	373.75881890009623	373.75881890009623	right	0	4.40457920008339	NA	NA	dkv	002	2026-02-10_15h31.46.680	MR	2023.1.0	60.0515482500401	NA
mr_images/3_b.png	mr_images/3_a_z_225.png	right	ccw	135	NA	NA	NA	NA	0	73	73	94	378.19145320006646	NA	NA	NA	NA	378.7292151000583	378.7292151000583	left	0	2.5691855000332	NA	NA	dkv	002	2026-02-10_15h31.46.680	MR	2023.1.0	60.0515482500401	NA
mr_images/6_b.png	mr_images/6_a_z_315.png	right	ccw	45	NA	NA	NA	NA	0	74	74	158	381.32859400007874	NA	NA	NA	NA	381.843308600015	381.843308600015	left	0	2.340330700040795	NA	NA	dkv	002	2026-02-10_15h31.46.680	MR	2023.1.0	60.0515482500401	NA
mr_images/6_a.png	mr_images/6_a_z_270.png	left	ccw	90	NA	NA	NA	NA	0	75	75	151	384.2115335999988	NA	NA	NA	NA	384.74053489998914	384.74053489998914	right	0	4.1128408999647945	NA	NA	dkv	002	2026-02-10_15h31.46.680	MR	2023.1.0	60.0515482500401	NA
mr_images/11_b.png	mr_images/11_a_z_315.png	right	ccw	45	NA	NA	NA	NA	0	76	76	38	388.87326999998186	NA	NA	NA	NA	389.4065987000941	389.4065987000941	left	0	1.68376630009152	NA	NA	dkv	002	2026-02-10_15h31.46.680	MR	2023.1.0	60.0515482500401	NA
mr_images/5_a.png	mr_images/5_b_z_225.png	right	ccw	135	NA	NA	NA	NA	0	77	77	130	391.123119099997	NA	NA	NA	NA	391.65639300004113	391.65639300004113	left	0	2.5853866999968886	NA	NA	dkv	002	2026-02-10_15h31.46.680	MR	2023.1.0	60.0515482500401	NA
mr_images/3_a.png	mr_images/3_a_z_45.png	left	cw	45	NA	NA	NA	NA	0	78	78	73	394.2725865000393	NA	NA	NA	NA	394.8102506999858	394.8102506999858	right	0	3.0718462999211624	NA	NA	dkv	002	2026-02-10_15h31.46.680	MR	2023.1.0	60.0515482500401	NA
mr_images/7_b.png	mr_images/7_a_z_135.png	right	cw	135	NA	NA	NA	NA	0	79	79	188	397.9096218000632	NA	NA	NA	NA	398.441251500044	398.441251500044	left	0	3.6922674999805167	NA	NA	dkv	002	2026-02-10_15h31.46.680	MR	2023.1.0	60.0515482500401	NA
mr_images/9_a.png	mr_images/9_a_z_90.png	left	cw	90	NA	NA	NA	NA	0	80	80	197	402.15907699998934	NA	NA	NA	NA	402.68803279998247	402.68803279998247	right	0	2.6693097999086604	NA	NA	dkv	002	2026-02-10_15h31.46.680	MR	2023.1.0	60.0515482500401	NA
mr_images/5_a.png	mr_images/5_a_z_225.png	left	ccw	135	NA	NA	NA	NA	0	81	81	131	405.3877419000491	NA	NA	NA	NA	405.92102540005	405.92102540005	right	0	3.707775999908335	NA	NA	dkv	002	2026-02-10_15h31.46.680	MR	2023.1.0	60.0515482500401	NA
mr_images/12_a.png	mr_images/12_b_z_270.png	right	ccw	90	NA	NA	NA	NA	0	82	82	54	409.6538053000113	NA	NA	NA	NA	410.1907911000307	410.1907911000307	left	0	2.0512377999257296	NA	NA	dkv	002	2026-02-10_15h31.46.680	MR	2023.1.0	60.0515482500401	NA
mr_images/7_a.png	mr_images/7_b_z_270.png	right	ccw	90	NA	NA	NA	NA	0	83	83	174	412.25771170004737	NA	NA	NA	NA	412.80337049998343	412.80337049998343	left	0	2.344673700048588	NA	NA	dkv	002	2026-02-10_15h31.46.680	MR	2023.1.0	60.0515482500401	NA
mr_images/6_b.png	mr_images/6_a_z_45.png	right	cw	45	NA	NA	NA	NA	0	84	84	156	415.1698195000645	NA	NA	NA	NA	415.706705700024	415.706705700024	right	1	3.5285107999807224	NA	NA	dkv	002	2026-02-10_15h31.46.680	MR	2023.1.0	60.0515482500401	NA
mr_images/3_a.png	mr_images/3_a_z_225.png	left	ccw	135	NA	NA	NA	NA	0	85	85	83	419.2566831000149	NA	NA	NA	NA	419.78569640009664	419.78569640009664	right	0	3.6908327999990433	NA	NA	dkv	002	2026-02-10_15h31.46.680	MR	2023.1.0	60.0515482500401	NA
mr_images/12_b.png	mr_images/12_b_z_90.png	left	cw	90	NA	NA	NA	NA	0	86	86	65	423.5018163000932	NA	NA	NA	NA	424.035232000053	424.035232000053	left	1	3.523701399913989	NA	NA	dkv	002	2026-02-10_15h31.46.680	MR	2023.1.0	60.0515482500401	NA
mr_images/12_b.png	mr_images/12_b_z_135.png	left	cw	135	NA	NA	NA	NA	0	87	87	69	427.58498400007375	NA	NA	NA	NA	428.11791470006574	428.11791470006574	right	0	2.9241752000525594	NA	NA	dkv	002	2026-02-10_15h31.46.680	MR	2023.1.0	60.0515482500401	NA
mr_images/4_b.png	mr_images/4_a_z_315.png	right	ccw	45	NA	NA	NA	NA	0	88	88	110	431.0674772000639	NA	NA	NA	NA	431.60317580006085	431.60317580006085	left	0	1.8430456999922171	NA	NA	dkv	002	2026-02-10_15h31.46.680	MR	2023.1.0	60.0515482500401	NA
mr_images/7_b.png	mr_images/7_b_z_315.png	left	ccw	45	NA	NA	NA	NA	0	89	89	183	433.4713724000612	NA	NA	NA	NA	434.0172043000348	434.0172043000348	right	0	2.126425400027074	NA	NA	dkv	002	2026-02-10_15h31.46.680	MR	2023.1.0	60.0515482500401	NA
mr_images/4_a.png	mr_images/4_a_z_45.png	left	cw	45	NA	NA	NA	NA	0	90	90	97	436.16679430007935	NA	NA	NA	NA	436.6997717000777	436.6997717000777	right	0	1.9608541000634432	NA	NA	dkv	002	2026-02-10_15h31.46.680	MR	2023.1.0	60.0515482500401	NA
mr_images/4_a.png	mr_images/4_b_z_90.png	right	cw	90	NA	NA	NA	NA	0	91	91	100	438.68314370000735	NA	NA	NA	NA	439.2160513000563	439.2160513000563	left	0	1.605785500025377	NA	NA	dkv	002	2026-02-10_15h31.46.680	MR	2023.1.0	60.0515482500401	NA
mr_images/7_b.png	mr_images/7_a_z_270.png	right	ccw	90	NA	NA	NA	NA	0	92	92	186	440.84949849999975	NA	NA	NA	NA	441.3852388000814	441.3852388000814	left	0	1.4937134999781847	NA	NA	dkv	002	2026-02-10_15h31.46.680	MR	2023.1.0	60.0515482500401	NA
mr_images/11_a.png	mr_images/11_b_z_45.png	right	cw	45	NA	NA	NA	NA	0	93	93	24	442.9034340000944	NA	NA	NA	NA	443.4324212000938	443.4324212000938	right	1	3.5598424000199884	NA	NA	dkv	002	2026-02-10_15h31.46.680	MR	2023.1.0	60.0515482500401	NA
mr_images/9_a.png	mr_images/9_b_z_225.png	right	ccw	135	NA	NA	NA	NA	0	94	94	202	447.0152749000117	NA	NA	NA	NA	447.5517178000882	447.5517178000882	left	0	3.0418257999699563	NA	NA	dkv	002	2026-02-10_15h31.46.680	MR	2023.1.0	60.0515482500401	NA
mr_images/3_b.png	mr_images/3_a_z_45.png	right	cw	45	NA	NA	NA	NA	0	95	95	84	450.6190223000012	NA	NA	NA	NA	NA	451.1647453000769	left	0	3.876174899982289	NA	NA	dkv	002	2026-02-10_15h31.46.680	MR	2023.1.0	60.0515482500401	NA
mr_images/12_b.png	mr_images/12_a_z_45.png	right	cw	45	NA	NA	NA	NA	0	96	96	60	455.0641007000813	NA	NA	NA	NA	455.5974344999995	455.5974344999995	left	0	2.8137252000160515	NA	NA	dkv	002	2026-02-10_15h31.46.680	MR	2023.1.0	60.0515482500401	NA
mr_images/5_b.png	mr_images/5_b_z_315.png	left	ccw	45	NA	NA	NA	NA	0	97	97	135	458.4302759000566	NA	NA	NA	NA	458.96360560006	458.96360560006	right	0	3.2220743000507355	NA	NA	dkv	002	2026-02-10_15h31.46.680	MR	2023.1.0	60.0515482500401	NA
mr_images/4_a.png	mr_images/4_b_z_45.png	right	cw	45	NA	NA	NA	NA	0	98	98	96	462.2132848000619	NA	NA	NA	NA	462.7464159000665	462.7464159000665	left	0	1.7626022000331432	NA	NA	dkv	002	2026-02-10_15h31.46.680	MR	2023.1.0	60.0515482500401	NA
mr_images/12_b.png	mr_images/12_a_z_225.png	right	ccw	135	NA	NA	NA	NA	0	99	99	70	464.5295644000871	NA	NA	NA	NA	465.0627611000091	465.0627611000091	left	0	3.2225736000109464	NA	NA	dkv	002	2026-02-10_15h31.46.680	MR	2023.1.0	60.0515482500401	NA
mr_images/12_a.png	mr_images/12_b_z_135.png	right	cw	135	NA	NA	NA	NA	0	100	100	56	468.31225230009295	NA	NA	NA	NA	468.8455763000529	468.8455763000529	left	0	2.5007380000315607	NA	NA	dkv	002	2026-02-10_15h31.46.680	MR	2023.1.0	60.0515482500401	NA
mr_images/1_a.png	mr_images/1_b_z_315.png	right	ccw	45	NA	NA	NA	NA	0	101	101	2	471.37897010007873	NA	NA	NA	NA	471.8949952999829	471.8949952999829	left	0	1.5435754000209272	NA	NA	dkv	002	2026-02-10_15h31.46.680	MR	2023.1.0	60.0515482500401	NA
mr_images/3_b.png	mr_images/3_b_z_315.png	left	ccw	45	NA	NA	NA	NA	0	102	102	87	473.461745699984	NA	NA	NA	NA	473.9948281000834	473.9948281000834	right	0	1.2029077000916004	NA	NA	dkv	002	2026-02-10_15h31.46.680	MR	2023.1.0	60.0515482500401	NA
mr_images/7_b.png	mr_images/7_b_z_270.png	left	ccw	90	NA	NA	NA	NA	0	103	103	187	475.2279643000802	NA	NA	NA	NA	475.7613138000015	475.7613138000015	right	0	3.080047699972056	NA	NA	dkv	002	2026-02-10_15h31.46.680	MR	2023.1.0	60.0515482500401	NA
mr_images/3_a.png	mr_images/3_b_z_90.png	right	cw	90	NA	NA	NA	NA	0	104	104	76	478.8608556999825	NA	NA	NA	NA	479.39707000006456	479.39707000006456	left	0	2.5357488999143243	NA	NA	dkv	002	2026-02-10_15h31.46.680	MR	2023.1.0	60.0515482500401	NA
mr_images/9_a.png	mr_images/9_a_z_315.png	left	ccw	45	NA	NA	NA	NA	0	105	105	195	481.9646730000386	NA	NA	NA	NA	482.4936220000964	482.4936220000964	right	0	3.644213500083424	NA	NA	dkv	002	2026-02-10_15h31.46.680	MR	2023.1.0	60.0515482500401	NA
mr_images/6_b.png	mr_images/6_b_z_315.png	left	ccw	45	NA	NA	NA	NA	0	106	106	159	486.1598654000554	NA	NA	NA	NA	486.6930783999851	486.6930783999851	right	0	3.0277693000389263	NA	NA	dkv	002	2026-02-10_15h31.46.680	MR	2023.1.0	60.0515482500401	NA
mr_images/12_b.png	mr_images/12_a_z_270.png	right	ccw	90	NA	NA	NA	NA	0	107	107	66	489.74267770000733	NA	NA	NA	NA	490.27586300007533	490.27586300007533	left	0	2.1281337999971583	NA	NA	dkv	002	2026-02-10_15h31.46.680	MR	2023.1.0	60.0515482500401	NA
mr_images/6_a.png	mr_images/6_b_z_135.png	right	cw	135	NA	NA	NA	NA	0	108	108	152	492.4256082000211	NA	NA	NA	NA	492.9588419999927	492.9588419999927	left	0	2.923319600056857	NA	NA	dkv	002	2026-02-10_15h31.46.680	MR	2023.1.0	60.0515482500401	NA
mr_images/7_a.png	mr_images/7_a_z_90.png	left	cw	90	NA	NA	NA	NA	0	109	109	173	495.9084383000154	NA	NA	NA	NA	496.44188709999435	496.44188709999435	right	0	2.3263886000495404	NA	NA	dkv	002	2026-02-10_15h31.46.680	MR	2023.1.0	60.0515482500401	NA
mr_images/11_a.png	mr_images/11_b_z_90.png	right	cw	90	NA	NA	NA	NA	0	110	110	28	498.7914568000706	NA	NA	NA	NA	499.3280931999907	499.3280931999907	left	0	2.8879985000239685	NA	NA	dkv	002	2026-02-10_15h31.46.680	MR	2023.1.0	60.0515482500401	NA
mr_images/1_b.png	mr_images/1_b_z_270.png	left	ccw	90	NA	NA	NA	NA	0	111	111	19	502.24519660009537	NA	NA	NA	NA	502.7907426999882	502.7907426999882	right	0	3.575889000087045	NA	NA	dkv	002	2026-02-10_15h31.46.680	MR	2023.1.0	60.0515482500401	NA
mr_images/5_a.png	mr_images/5_b_z_270.png	right	ccw	90	NA	NA	NA	NA	0	112	112	126	506.39034210005775	NA	NA	NA	NA	506.92364950000774	506.92364950000774	right	1	2.0076496000401676	NA	NA	dkv	002	2026-02-10_15h31.46.680	MR	2023.1.0	60.0515482500401	NA
mr_images/5_b.png	mr_images/5_b_z_135.png	left	cw	135	NA	NA	NA	NA	0	113	113	141	508.9567648000084	NA	NA	NA	NA	509.48990000004414	509.48990000004414	right	0	2.7595224999822676	NA	NA	dkv	002	2026-02-10_15h31.46.680	MR	2023.1.0	60.0515482500401	NA
mr_images/9_a.png	mr_images/9_b_z_90.png	right	cw	90	NA	NA	NA	NA	0	114	114	196	512.2729412000626	NA	NA	NA	NA	512.8123367000371	512.8123367000371	right	1	3.914764500106685	NA	NA	dkv	002	2026-02-10_15h31.46.680	MR	2023.1.0	60.0515482500401	NA
mr_images/4_b.png	mr_images/4_b_z_45.png	left	cw	45	NA	NA	NA	NA	0	115	115	109	516.7431926000863	NA	NA	NA	NA	517.2722634000238	517.2722634000238	right	0	2.22930499992799	NA	NA	dkv	002	2026-02-10_15h31.46.680	MR	2023.1.0	60.0515482500401	NA
mr_images/7_a.png	mr_images/7_a_z_45.png	left	cw	45	NA	NA	NA	NA	0	116	116	169	519.5218709000619	NA	NA	NA	NA	520.055063100066	520.055063100066	right	0	3.304584299912676	NA	NA	dkv	002	2026-02-10_15h31.46.680	MR	2023.1.0	60.0515482500401	NA
mr_images/3_a.png	mr_images/3_b_z_270.png	right	ccw	90	NA	NA	NA	NA	0	117	117	78	523.3879517000169	NA	NA	NA	NA	523.9213099000044	523.9213099000044	left	0	2.32099689997267	NA	NA	dkv	002	2026-02-10_15h31.46.680	MR	2023.1.0	60.0515482500401	NA
mr_images/1_a.png	mr_images/1_b_z_225.png	right	ccw	135	NA	NA	NA	NA	0	118	118	10	526.2710367999971	NA	NA	NA	NA	526.8045589000685	526.8045589000685	left	0	2.316833700053394	NA	NA	dkv	002	2026-02-10_15h31.46.680	MR	2023.1.0	60.0515482500401	NA
mr_images/3_b.png	mr_images/3_b_z_270.png	left	ccw	90	NA	NA	NA	NA	0	119	119	91	529.1539322000463	NA	NA	NA	NA	529.6871209000237	529.6871209000237	right	0	1.8916105999378487	NA	NA	dkv	002	2026-02-10_15h31.46.680	MR	2023.1.0	60.0515482500401	NA
mr_images/4_a.png	mr_images/4_a_z_315.png	left	ccw	45	NA	NA	NA	NA	0	120	120	99	531.6035932000959	NA	NA	NA	NA	532.1368194000097	532.1368194000097	right	0	1.5161565999733284	NA	NA	dkv	002	2026-02-10_15h31.46.680	MR	2023.1.0	60.0515482500401	NA
mr_images/4_b.png	mr_images/4_b_z_90.png	left	cw	90	NA	NA	NA	NA	0	121	121	113	533.6700529000955	NA	NA	NA	NA	534.2033048000885	534.2033048000885	left	1	1.5378258000127971	NA	NA	dkv	002	2026-02-10_15h31.46.680	MR	2023.1.0	60.0515482500401	NA
mr_images/3_a.png	mr_images/3_b_z_225.png	right	ccw	135	NA	NA	NA	NA	0	122	122	82	535.7698022000259	NA	NA	NA	NA	536.302878400078	536.302878400078	left	0	2.1604908999288455	NA	NA	dkv	002	2026-02-10_15h31.46.680	MR	2023.1.0	60.0515482500401	NA
mr_images/11_a.png	mr_images/11_a_z_45.png	left	cw	45	NA	NA	NA	NA	0	123	123	25	538.4858806000557	NA	NA	NA	NA	539.0229881000705	539.0229881000705	right	0	2.8140178999165073	NA	NA	dkv	002	2026-02-10_15h31.46.680	MR	2023.1.0	60.0515482500401	NA
mr_images/1_b.png	mr_images/1_b_z_90.png	left	cw	90	NA	NA	NA	NA	0	124	124	17	541.8563593000872	NA	NA	NA	NA	542.3861464000074	542.3861464000074	right	0	2.828117699944414	NA	NA	dkv	002	2026-02-10_15h31.46.680	MR	2023.1.0	60.0515482500401	NA
mr_images/9_b.png	mr_images/9_b_z_90.png	left	cw	90	NA	NA	NA	NA	0	125	125	209	545.2351434000302	NA	NA	NA	NA	545.7682980999816	545.7682980999816	right	0	3.805685999919661	NA	NA	dkv	002	2026-02-10_15h31.46.680	MR	2023.1.0	60.0515482500401	NA
mr_images/11_b.png	mr_images/11_a_z_225.png	right	ccw	135	NA	NA	NA	NA	0	126	126	46	549.6010750000132	NA	NA	NA	NA	550.1342780999839	550.1342780999839	left	0	3.241169000044465	NA	NA	dkv	002	2026-02-10_15h31.46.680	MR	2023.1.0	60.0515482500401	NA
mr_images/5_b.png	mr_images/5_a_z_135.png	right	cw	135	NA	NA	NA	NA	0	127	127	140	553.4004459000425	NA	NA	NA	NA	553.9373925999971	553.9373925999971	left	0	3.671107600093819	NA	NA	dkv	002	2026-02-10_15h31.46.680	MR	2023.1.0	60.0515482500401	NA
mr_images/7_a.png	mr_images/7_a_z_270.png	left	ccw	90	NA	NA	NA	NA	0	128	128	175	557.6499261000426	NA	NA	NA	NA	NA	558.1831321000354	right	0	2.186608299962245	NA	NA	dkv	002	2026-02-10_15h31.46.680	MR	2023.1.0	60.0515482500401	NA
mr_images/9_b.png	mr_images/9_a_z_135.png	right	cw	135	NA	NA	NA	NA	0	129	129	212	560.3994835000485	NA	NA	NA	NA	560.9327569000889	560.9327569000889	left	0	3.7473522000946105	NA	NA	dkv	002	2026-02-10_15h31.46.680	MR	2023.1.0	60.0515482500401	NA
mr_images/6_a.png	mr_images/6_a_z_135.png	left	cw	135	NA	NA	NA	NA	0	130	130	153	564.6988977000583	NA	NA	NA	NA	565.2322779999813	565.2322779999813	right	0	3.408062000060454	NA	NA	dkv	002	2026-02-10_15h31.46.680	MR	2023.1.0	60.0515482500401	NA
mr_images/1_b.png	mr_images/1_a_z_45.png	right	cw	45	NA	NA	NA	NA	0	131	131	12	568.66519780003	NA	NA	NA	NA	569.1982721000677	569.1982721000677	left	0	2.553519499953836	NA	NA	dkv	002	2026-02-10_15h31.46.680	MR	2023.1.0	60.0515482500401	NA
mr_images/4_b.png	mr_images/4_b_z_270.png	left	ccw	90	NA	NA	NA	NA	0	132	132	115	571.7812764000846	NA	NA	NA	NA	572.3187791000819	572.3187791000819	right	0	1.9792158999480307	NA	NA	dkv	002	2026-02-10_15h31.46.680	MR	2023.1.0	60.0515482500401	NA
mr_images/4_b.png	mr_images/4_a_z_90.png	right	cw	90	NA	NA	NA	NA	0	133	133	112	574.3185157000553	NA	NA	NA	NA	574.8642187000951	574.8642187000951	left	0	2.086163399973884	NA	NA	dkv	002	2026-02-10_15h31.46.680	MR	2023.1.0	60.0515482500401	NA
mr_images/3_b.png	mr_images/3_a_z_135.png	right	cw	135	NA	NA	NA	NA	0	134	134	92	576.9805610000622	NA	NA	NA	NA	577.51713510009	577.51713510009	left	0	2.044343000045046	NA	NA	dkv	002	2026-02-10_15h31.46.680	MR	2023.1.0	60.0515482500401	NA
mr_images/7_b.png	mr_images/7_a_z_45.png	right	cw	45	NA	NA	NA	NA	0	135	135	180	579.5844704000046	NA	NA	NA	NA	580.1134311000351	580.1134311000351	left	0	2.3763238999526948	NA	NA	dkv	002	2026-02-10_15h31.46.680	MR	2023.1.0	60.0515482500401	NA
mr_images/11_a.png	mr_images/11_b_z_135.png	right	cw	135	NA	NA	NA	NA	0	136	136	32	582.5132573000155	NA	NA	NA	NA	583.0464236000553	583.0464236000553	None	0	NA	NA	NA	dkv	002	2026-02-10_15h31.46.680	MR	2023.1.0	60.0515482500401	NA
mr_images/4_a.png	mr_images/4_b_z_270.png	right	ccw	90	NA	NA	NA	NA	0	137	137	102	588.0290613999823	NA	NA	NA	NA	NA	588.5623314999975	left	0	1.5671351000200957	NA	NA	dkv	002	2026-02-10_15h31.46.680	MR	2023.1.0	60.0515482500401	NA
mr_images/3_a.png	mr_images/3_b_z_45.png	right	cw	45	NA	NA	NA	NA	0	138	138	72	590.1622175000375	NA	NA	NA	NA	590.6954240000341	590.6954240000341	left	0	3.462268600007519	NA	NA	dkv	002	2026-02-10_15h31.46.680	MR	2023.1.0	60.0515482500401	NA
mr_images/6_a.png	mr_images/6_b_z_45.png	right	cw	45	NA	NA	NA	NA	0	139	139	144	594.1781662000576	NA	NA	NA	NA	594.7115826000227	594.7115826000227	left	0	3.886848099995405	NA	NA	dkv	002	2026-02-10_15h31.46.680	MR	2023.1.0	60.0515482500401	NA
mr_images/3_a.png	mr_images/3_a_z_270.png	left	ccw	90	NA	NA	NA	NA	0	140	140	79	598.6276293999981	NA	NA	NA	NA	599.1609944000375	599.1609944000375	right	0	1.92761320003774	NA	NA	dkv	002	2026-02-10_15h31.46.680	MR	2023.1.0	60.0515482500401	NA
mr_images/12_b.png	mr_images/12_b_z_270.png	left	ccw	90	NA	NA	NA	NA	0	141	141	67	601.1108240000904	NA	NA	NA	NA	601.6438055000035	601.6438055000035	right	0	2.1262592000421137	NA	NA	dkv	002	2026-02-10_15h31.46.680	MR	2023.1.0	60.0515482500401	NA
mr_images/3_a.png	mr_images/3_a_z_135.png	left	cw	135	NA	NA	NA	NA	0	142	142	81	603.7934581000591	NA	NA	NA	NA	604.3268918000394	604.3268918000394	right	0	2.1914068999467418	NA	NA	dkv	002	2026-02-10_15h31.46.680	MR	2023.1.0	60.0515482500401	NA
mr_images/11_b.png	mr_images/11_b_z_135.png	left	cw	135	NA	NA	NA	NA	0	143	143	45	606.5431685000658	NA	NA	NA	NA	607.076396199991	607.076396199991	right	0	3.6650629000505432	NA	NA	dkv	002	2026-02-10_15h31.46.680	MR	2023.1.0	60.0515482500401	NA
mr_images/6_a.png	mr_images/6_a_z_45.png	left	cw	45	NA	NA	NA	NA	0	144	144	145	610.7592178999912	NA	NA	NA	NA	611.2929169000126	611.2929169000126	left	1	3.5951028000563383	NA	NA	dkv	002	2026-02-10_15h31.46.680	MR	2023.1.0	60.0515482500401	NA
mr_images/1_b.png	mr_images/1_b_z_135.png	left	cw	135	NA	NA	NA	NA	0	145	145	21	614.9085612000199	NA	NA	NA	NA	615.4448725000257	615.4448725000257	right	0	2.4488957000430673	NA	NA	dkv	002	2026-02-10_15h31.46.680	MR	2023.1.0	60.0515482500401	NA
mr_images/12_b.png	mr_images/12_a_z_90.png	right	cw	90	NA	NA	NA	NA	0	146	146	64	617.9124468000373	NA	NA	NA	NA	618.4581265000161	618.4581265000161	left	0	2.835138399968855	NA	NA	dkv	002	2026-02-10_15h31.46.680	MR	2023.1.0	60.0515482500401	NA
mr_images/3_b.png	mr_images/3_a_z_90.png	right	cw	90	NA	NA	NA	NA	0	147	147	88	621.324420500081	NA	NA	NA	NA	621.8577045000857	621.8577045000857	left	0	3.747754200012423	NA	NA	dkv	002	2026-02-10_15h31.46.680	MR	2023.1.0	60.0515482500401	NA
mr_images/7_a.png	mr_images/7_b_z_315.png	right	ccw	45	NA	NA	NA	NA	0	148	148	170	625.6237445999868	NA	NA	NA	NA	626.1571459000697	626.1571459000697	left	0	1.812485700007528	NA	NA	dkv	002	2026-02-10_15h31.46.680	MR	2023.1.0	60.0515482500401	NA
mr_images/6_b.png	mr_images/6_b_z_135.png	left	cw	135	NA	NA	NA	NA	0	149	149	165	627.990104900091	NA	NA	NA	NA	628.5234011000721	628.5234011000721	right	0	2.4364746999926865	NA	NA	dkv	002	2026-02-10_15h31.46.680	MR	2023.1.0	60.0515482500401	NA
mr_images/5_a.png	mr_images/5_b_z_45.png	right	cw	45	NA	NA	NA	NA	0	150	150	120	630.9897462000372	NA	NA	NA	NA	631.5229569000658	631.5229569000658	left	0	2.5862542999675497	NA	NA	dkv	002	2026-02-10_15h31.46.680	MR	2023.1.0	60.0515482500401	NA
mr_images/7_a.png	mr_images/7_b_z_225.png	right	ccw	135	NA	NA	NA	NA	0	151	151	178	634.1393028000602	NA	NA	NA	NA	634.6725763999857	634.6725763999857	left	0	1.880815800046548	NA	NA	dkv	002	2026-02-10_15h31.46.680	MR	2023.1.0	60.0515482500401	NA
mr_images/11_b.png	mr_images/11_a_z_270.png	right	ccw	90	NA	NA	NA	NA	0	152	152	42	636.5723815000383	NA	NA	NA	NA	637.1222414000658	637.1222414000658	left	0	1.7544711000518871	NA	NA	dkv	002	2026-02-10_15h31.46.680	MR	2023.1.0	60.0515482500401	NA
mr_images/11_a.png	mr_images/11_b_z_270.png	right	ccw	90	NA	NA	NA	NA	0	153	153	30	638.9053721000673	NA	NA	NA	NA	639.4384816000238	639.4384816000238	left	0	1.6951190000399947	NA	NA	dkv	002	2026-02-10_15h31.46.680	MR	2023.1.0	60.0515482500401	NA
mr_images/4_a.png	mr_images/4_a_z_225.png	left	ccw	135	NA	NA	NA	NA	0	154	154	107	641.1549601000734	NA	NA	NA	NA	641.6922209000913	641.6922209000913	right	0	2.093593400088139	NA	NA	dkv	002	2026-02-10_15h31.46.680	MR	2023.1.0	60.0515482500401	NA
mr_images/5_b.png	mr_images/5_a_z_270.png	right	ccw	90	NA	NA	NA	NA	0	155	155	138	643.8089080000063	NA	NA	NA	NA	644.3545965000521	644.3545965000521	left	0	1.8284067999338731	NA	NA	dkv	002	2026-02-10_15h31.46.680	MR	2023.1.0	60.0515482500401	NA
mr_images/12_a.png	mr_images/12_a_z_270.png	left	ccw	90	NA	NA	NA	NA	0	156	156	55	646.2044346000766	NA	NA	NA	NA	646.7375750000356	646.7375750000356	right	0	1.8745642999419945	NA	NA	dkv	002	2026-02-10_15h31.46.680	MR	2023.1.0	60.0515482500401	NA
mr_images/11_b.png	mr_images/11_b_z_270.png	left	ccw	90	NA	NA	NA	NA	0	157	157	43	648.6373271000339	NA	NA	NA	NA	649.1705312000122	649.1705312000122	right	0	1.526289299945347	NA	NA	dkv	002	2026-02-10_15h31.46.680	MR	2023.1.0	60.0515482500401	NA
mr_images/11_a.png	mr_images/11_a_z_135.png	left	cw	135	NA	NA	NA	NA	0	158	158	33	650.7203407000052	NA	NA	NA	NA	651.2604047000641	651.2604047000641	right	0	3.643693199963309	NA	NA	dkv	002	2026-02-10_15h31.46.680	MR	2023.1.0	60.0515482500401	NA
mr_images/9_a.png	mr_images/9_a_z_270.png	left	ccw	90	NA	NA	NA	NA	0	159	159	199	654.9240245000692	NA	NA	NA	NA	655.469806100009	655.469806100009	right	0	1.4535095000173897	NA	NA	dkv	002	2026-02-10_15h31.46.680	MR	2023.1.0	60.0515482500401	NA
mr_images/6_a.png	mr_images/6_b_z_225.png	right	ccw	135	NA	NA	NA	NA	0	160	160	154	656.9527737000026	NA	NA	NA	NA	657.4884428000078	657.4884428000078	left	0	2.0990325999446213	NA	NA	dkv	002	2026-02-10_15h31.46.680	MR	2023.1.0	60.0515482500401	NA
mr_images/12_b.png	mr_images/12_b_z_315.png	left	ccw	45	NA	NA	NA	NA	0	161	161	63	659.6066946000792	NA	NA	NA	NA	NA	660.1524001000216	right	0	1.500501099973917	NA	NA	dkv	002	2026-02-10_15h31.46.680	MR	2023.1.0	60.0515482500401	NA
mr_images/12_b.png	mr_images/12_a_z_135.png	right	cw	135	NA	NA	NA	NA	0	162	162	68	661.6854921000777	NA	NA	NA	NA	662.2187943999888	662.2187943999888	left	0	3.014201999991201	NA	NA	dkv	002	2026-02-10_15h31.46.680	MR	2023.1.0	60.0515482500401	NA
mr_images/5_a.png	mr_images/5_a_z_270.png	left	ccw	90	NA	NA	NA	NA	0	163	163	127	665.2518675000174	NA	NA	NA	NA	665.7849730000598	665.7849730000598	right	0	2.253655400010757	NA	NA	dkv	002	2026-02-10_15h31.46.680	MR	2023.1.0	60.0515482500401	NA
mr_images/4_a.png	mr_images/4_b_z_225.png	right	ccw	135	NA	NA	NA	NA	0	164	164	106	668.0679170000367	NA	NA	NA	NA	668.6011209000135	668.6011209000135	left	0	2.2630875000031665	NA	NA	dkv	002	2026-02-10_15h31.46.680	MR	2023.1.0	60.0515482500401	NA
mr_images/4_b.png	mr_images/4_a_z_225.png	right	ccw	135	NA	NA	NA	NA	0	165	165	118	670.8842743000714	NA	NA	NA	NA	671.4176336000673	671.4176336000673	left	0	1.848340900032781	NA	NA	dkv	002	2026-02-10_15h31.46.680	MR	2023.1.0	60.0515482500401	NA
mr_images/5_a.png	mr_images/5_a_z_135.png	left	cw	135	NA	NA	NA	NA	0	166	166	129	673.2838838000316	NA	NA	NA	NA	673.8171631000005	673.8171631000005	right	0	4.375593799981289	NA	NA	dkv	002	2026-02-10_15h31.46.680	MR	2023.1.0	60.0515482500401	NA
mr_images/6_a.png	mr_images/6_a_z_225.png	left	ccw	135	NA	NA	NA	NA	0	167	167	155	678.2166088999948	NA	NA	NA	NA	678.749835900031	678.749835900031	right	0	2.3726933000143617	NA	NA	dkv	002	2026-02-10_15h31.46.680	MR	2023.1.0	60.0515482500401	NA
mr_images/9_b.png	mr_images/9_a_z_270.png	right	ccw	90	NA	NA	NA	NA	0	168	168	210	681.1494592999807	NA	NA	NA	NA	681.6827538000653	681.6827538000653	left	0	1.3289054000051692	NA	NA	dkv	002	2026-02-10_15h31.46.680	MR	2023.1.0	60.0515482500401	NA
mr_images/1_b.png	mr_images/1_a_z_90.png	right	cw	90	NA	NA	NA	NA	0	169	169	16	683.0326701999875	NA	NA	NA	NA	683.5657362000784	683.5657362000784	right	1	2.877528400043957	NA	NA	dkv	002	2026-02-10_15h31.46.680	MR	2023.1.0	60.0515482500401	NA
mr_images/4_b.png	mr_images/4_b_z_315.png	left	ccw	45	NA	NA	NA	NA	0	170	170	111	686.4653074999806	NA	NA	NA	NA	686.9985723000718	686.9985723000718	right	0	1.5701736999908462	NA	NA	dkv	002	2026-02-10_15h31.46.680	MR	2023.1.0	60.0515482500401	NA
mr_images/7_a.png	mr_images/7_b_z_135.png	right	cw	135	NA	NA	NA	NA	0	171	171	176	688.5984707000898	NA	NA	NA	NA	689.131625900045	689.131625900045	left	0	2.0778254999313504	NA	NA	dkv	002	2026-02-10_15h31.46.680	MR	2023.1.0	60.0515482500401	NA
mr_images/4_a.png	mr_images/4_a_z_90.png	left	cw	90	NA	NA	NA	NA	0	172	172	101	691.2314765000483	NA	NA	NA	NA	691.7646656000288	691.7646656000288	right	0	2.035306900041178	NA	NA	dkv	002	2026-02-10_15h31.46.680	MR	2023.1.0	60.0515482500401	NA
mr_images/1_a.png	mr_images/1_a_z_135.png	left	cw	135	NA	NA	NA	NA	0	173	173	9	693.8310374000575	NA	NA	NA	NA	694.3674454999855	694.3674454999855	right	0	2.203768100007437	NA	NA	dkv	002	2026-02-10_15h31.46.680	MR	2023.1.0	60.0515482500401	NA
mr_images/6_a.png	mr_images/6_a_z_315.png	left	ccw	45	NA	NA	NA	NA	0	174	174	147	696.6015206000302	NA	NA	NA	NA	697.1305534000276	697.1305534000276	right	0	1.8574530000332743	NA	NA	dkv	002	2026-02-10_15h31.46.680	MR	2023.1.0	60.0515482500401	NA
mr_images/4_b.png	mr_images/4_a_z_135.png	right	cw	135	NA	NA	NA	NA	0	175	175	116	699.0136229000054	NA	NA	NA	NA	699.5468546000775	699.5468546000775	left	0	2.074681799975224	NA	NA	dkv	002	2026-02-10_15h31.46.680	MR	2023.1.0	60.0515482500401	NA
mr_images/5_b.png	mr_images/5_a_z_90.png	right	cw	90	NA	NA	NA	NA	0	176	176	136	701.6465350000653	NA	NA	NA	NA	702.1798869000049	702.1798869000049	left	0	3.1053857000079006	NA	NA	dkv	002	2026-02-10_15h31.46.680	MR	2023.1.0	60.0515482500401	NA
mr_images/3_a.png	mr_images/3_b_z_135.png	right	cw	135	NA	NA	NA	NA	0	177	177	80	705.3127593999961	NA	NA	NA	NA	705.8461417000508	705.8461417000508	left	0	1.909356700023636	NA	NA	dkv	002	2026-02-10_15h31.46.680	MR	2023.1.0	60.0515482500401	NA
mr_images/3_b.png	mr_images/3_b_z_90.png	left	cw	90	NA	NA	NA	NA	0	178	178	89	707.7789977000793	NA	NA	NA	NA	708.3123187000165	708.3123187000165	right	0	2.0583295000251383	NA	NA	dkv	002	2026-02-10_15h31.46.680	MR	2023.1.0	60.0515482500401	NA
mr_images/1_b.png	mr_images/1_b_z_45.png	left	cw	45	NA	NA	NA	NA	0	179	179	13	710.3953316999832	NA	NA	NA	NA	710.9319377000211	710.9319377000211	right	0	2.013907799962908	NA	NA	dkv	002	2026-02-10_15h31.46.680	MR	2023.1.0	60.0515482500401	NA
mr_images/6_b.png	mr_images/6_b_z_90.png	left	cw	90	NA	NA	NA	NA	0	180	180	161	712.9659131000517	NA	NA	NA	NA	713.4948549000546	713.4948549000546	right	0	4.206792399985716	NA	NA	dkv	002	2026-02-10_15h31.46.680	MR	2023.1.0	60.0515482500401	NA
mr_images/12_a.png	mr_images/12_b_z_225.png	right	ccw	135	NA	NA	NA	NA	0	181	181	58	717.7276481000008	NA	NA	NA	NA	718.2609130000928	718.2609130000928	left	0	2.385912800091319	NA	NA	dkv	002	2026-02-10_15h31.46.680	MR	2023.1.0	60.0515482500401	NA
mr_images/9_a.png	mr_images/9_b_z_315.png	right	ccw	45	NA	NA	NA	NA	0	182	182	194	720.6772354000714	NA	NA	NA	NA	721.2106275000842	721.2106275000842	left	0	1.4824662000173705	NA	NA	dkv	002	2026-02-10_15h31.46.680	MR	2023.1.0	60.0515482500401	NA
mr_images/5_a.png	mr_images/5_a_z_315.png	left	ccw	45	NA	NA	NA	NA	0	183	183	123	722.7103580000112	NA	NA	NA	NA	723.243730599992	723.243730599992	right	0	2.4865002000005916	NA	NA	dkv	002	2026-02-10_15h31.46.680	MR	2023.1.0	60.0515482500401	NA
mr_images/11_b.png	mr_images/11_a_z_90.png	right	cw	90	NA	NA	NA	NA	0	184	184	40	725.7599340000888	NA	NA	NA	NA	726.2932551000267	726.2932551000267	left	0	2.3540380999911577	NA	NA	dkv	002	2026-02-10_15h31.46.680	MR	2023.1.0	60.0515482500401	NA
mr_images/1_a.png	mr_images/1_a_z_225.png	left	ccw	135	NA	NA	NA	NA	0	185	185	11	728.6762212000322	NA	NA	NA	NA	729.2095427000895	729.2095427000895	right	0	2.526616199989803	NA	NA	dkv	002	2026-02-10_15h31.46.680	MR	2023.1.0	60.0515482500401	NA
mr_images/4_b.png	mr_images/4_b_z_225.png	left	ccw	135	NA	NA	NA	NA	0	186	186	119	731.7590592000633	NA	NA	NA	NA	732.2923235000344	732.2923235000344	right	0	1.801217700005509	NA	NA	dkv	002	2026-02-10_15h31.46.680	MR	2023.1.0	60.0515482500401	NA
mr_images/11_b.png	mr_images/11_b_z_90.png	left	cw	90	NA	NA	NA	NA	0	187	187	41	734.1253666999983	NA	NA	NA	NA	734.6586783000967	734.6586783000967	left	1	2.2214688999811187	NA	NA	dkv	002	2026-02-10_15h31.46.680	MR	2023.1.0	60.0515482500401	NA
mr_images/9_b.png	mr_images/9_b_z_225.png	left	ccw	135	NA	NA	NA	NA	0	188	188	215	736.9083297000034	NA	NA	NA	NA	737.441580499988	737.441580499988	right	0	3.29683320003096	NA	NA	dkv	002	2026-02-10_15h31.46.680	MR	2023.1.0	60.0515482500401	NA
mr_images/11_b.png	mr_images/11_b_z_225.png	left	ccw	135	NA	NA	NA	NA	0	189	189	47	740.7578756000148	NA	NA	NA	NA	741.2941678999923	741.2941678999923	right	0	2.8545102999778464	NA	NA	dkv	002	2026-02-10_15h31.46.680	MR	2023.1.0	60.0515482500401	NA
mr_images/11_b.png	mr_images/11_a_z_135.png	right	cw	135	NA	NA	NA	NA	0	190	190	44	744.178267100011	NA	NA	NA	NA	744.7072208999889	744.7072208999889	left	0	2.9549818000523373	NA	NA	dkv	002	2026-02-10_15h31.46.680	MR	2023.1.0	60.0515482500401	NA
mr_images/6_b.png	mr_images/6_b_z_225.png	left	ccw	135	NA	NA	NA	NA	0	191	191	167	747.6902112000389	NA	NA	NA	NA	748.2234771000221	748.2234771000221	right	0	2.4299281000858173	NA	NA	dkv	002	2026-02-10_15h31.46.680	MR	2023.1.0	60.0515482500401	NA
mr_images/11_a.png	mr_images/11_a_z_270.png	left	ccw	90	NA	NA	NA	NA	0	192	192	31	750.6730741000501	NA	NA	NA	NA	751.206505500013	751.206505500013	right	0	2.836006300058216	NA	NA	dkv	002	2026-02-10_15h31.46.680	MR	2023.1.0	60.0515482500401	NA
mr_images/11_b.png	mr_images/11_a_z_45.png	right	cw	45	NA	NA	NA	NA	0	193	193	36	754.0726607000688	NA	NA	NA	NA	754.6060202000663	754.6060202000663	left	0	2.200704799965024	NA	NA	dkv	002	2026-02-10_15h31.46.680	MR	2023.1.0	60.0515482500401	NA
mr_images/11_a.png	mr_images/11_b_z_315.png	right	ccw	45	NA	NA	NA	NA	0	194	194	26	756.8416663000826	NA	NA	NA	NA	NA	757.3722273000749	left	0	1.3418093998916447	NA	NA	dkv	002	2026-02-10_15h31.46.680	MR	2023.1.0	60.0515482500401	NA
mr_images/9_a.png	mr_images/9_a_z_135.png	left	cw	135	NA	NA	NA	NA	0	195	195	201	758.7386098999996	NA	NA	NA	NA	759.2719808000838	759.2719808000838	right	0	2.0182364000938833	NA	NA	dkv	002	2026-02-10_15h31.46.680	MR	2023.1.0	60.0515482500401	NA
mr_images/5_a.png	mr_images/5_b_z_315.png	right	ccw	45	NA	NA	NA	NA	0	196	196	122	761.3216198000591	NA	NA	NA	NA	761.8549495000625	761.8549495000625	left	0	1.5664492000360042	NA	NA	dkv	002	2026-02-10_15h31.46.680	MR	2023.1.0	60.0515482500401	NA
mr_images/4_a.png	mr_images/4_b_z_135.png	right	cw	135	NA	NA	NA	NA	0	197	197	104	763.43808360002	NA	NA	NA	NA	763.9712609000271	763.9712609000271	left	0	1.4946420999476686	NA	NA	dkv	002	2026-02-10_15h31.46.680	MR	2023.1.0	60.0515482500401	NA
mr_images/11_a.png	mr_images/11_a_z_315.png	left	ccw	45	NA	NA	NA	NA	0	198	198	27	765.4877438000403	NA	NA	NA	NA	766.0041334000416	766.0041334000416	right	0	1.5283514000475409	NA	NA	dkv	002	2026-02-10_15h31.46.680	MR	2023.1.0	60.0515482500401	NA
mr_images/6_a.png	mr_images/6_b_z_270.png	right	ccw	90	NA	NA	NA	NA	0	199	199	150	767.5540485000238	NA	NA	NA	NA	768.0873863000888	768.0873863000888	left	0	4.435930500039831	NA	NA	dkv	002	2026-02-10_15h31.46.680	MR	2023.1.0	60.0515482500401	NA
mr_images/6_a.png	mr_images/6_b_z_90.png	right	cw	90	NA	NA	NA	NA	0	200	200	148	772.5534579000669	NA	NA	NA	NA	773.0866471000481	773.0866471000481	left	0	2.074883099994622	NA	NA	dkv	002	2026-02-10_15h31.46.680	MR	2023.1.0	60.0515482500401	NA
mr_images/3_b.png	mr_images/3_a_z_315.png	right	ccw	45	NA	NA	NA	NA	0	201	201	86	775.1863329000771	NA	NA	NA	NA	775.7196608000668	775.7196608000668	left	0	1.1530054999748245	NA	NA	dkv	002	2026-02-10_15h31.46.680	MR	2023.1.0	60.0515482500401	NA
mr_images/12_a.png	mr_images/12_a_z_90.png	left	cw	90	NA	NA	NA	NA	0	202	202	53	776.9028462000424	NA	NA	NA	NA	777.4360561000649	777.4360561000649	right	0	2.102882699924521	NA	NA	dkv	002	2026-02-10_15h31.46.680	MR	2023.1.0	60.0515482500401	NA
mr_images/1_b.png	mr_images/1_a_z_135.png	right	cw	135	NA	NA	NA	NA	0	203	203	20	779.5690664000576	NA	NA	NA	NA	780.102308300091	780.102308300091	left	0	1.4557357999728993	NA	NA	dkv	002	2026-02-10_15h31.46.680	MR	2023.1.0	60.0515482500401	NA
mr_images/1_a.png	mr_images/1_b_z_270.png	right	ccw	90	NA	NA	NA	NA	0	204	204	6	781.585516900057	NA	NA	NA	NA	782.1187652000226	782.1187652000226	left	0	2.1387099999701604	NA	NA	dkv	002	2026-02-10_15h31.46.680	MR	2023.1.0	60.0515482500401	NA
mr_images/11_a.png	mr_images/11_b_z_225.png	right	ccw	135	NA	NA	NA	NA	0	205	205	34	784.2851903000847	NA	NA	NA	NA	784.8183691999875	784.8183691999875	right	1	4.2275938000530005	NA	NA	dkv	002	2026-02-10_15h31.46.680	MR	2023.1.0	60.0515482500401	NA
mr_images/1_a.png	mr_images/1_b_z_45.png	right	cw	45	NA	NA	NA	NA	0	206	206	0	789.0678108000429	NA	NA	NA	NA	789.6009804999921	789.6009804999921	left	0	2.064202400040813	NA	NA	dkv	002	2026-02-10_15h31.46.680	MR	2023.1.0	60.0515482500401	NA
mr_images/9_b.png	mr_images/9_b_z_270.png	left	ccw	90	NA	NA	NA	NA	0	207	207	211	791.6840642000316	NA	NA	NA	NA	792.2173532000743	792.2173532000743	right	0	3.4051596999634057	NA	NA	dkv	002	2026-02-10_15h31.46.680	MR	2023.1.0	60.0515482500401	NA
mr_images/1_b.png	mr_images/1_a_z_315.png	right	ccw	45	NA	NA	NA	NA	0	208	208	14	795.6503985000309	NA	NA	NA	NA	796.1836566000711	796.1836566000711	left	0	1.2029712999938056	NA	NA	dkv	002	2026-02-10_15h31.46.680	MR	2023.1.0	60.0515482500401	NA
mr_images/1_a.png	mr_images/1_b_z_135.png	right	cw	135	NA	NA	NA	NA	0	209	209	8	797.4166073000524	NA	NA	NA	NA	797.9498854000121	797.9498854000121	left	0	1.4269513000035658	NA	NA	dkv	002	2026-02-10_15h31.46.680	MR	2023.1.0	60.0515482500401	NA
mr_images/7_a.png	mr_images/7_a_z_135.png	left	cw	135	NA	NA	NA	NA	0	210	210	177	799.3996373000555	NA	NA	NA	NA	799.9343958999962	799.9343958999962	right	0	3.719793300027959	NA	NA	dkv	002	2026-02-10_15h31.46.680	MR	2023.1.0	60.0515482500401	NA
mr_images/5_a.png	mr_images/5_b_z_90.png	right	cw	90	NA	NA	NA	NA	0	211	211	124	803.682451800094	NA	NA	NA	NA	804.2157694000052	804.2157694000052	left	0	2.666900600073859	NA	NA	dkv	002	2026-02-10_15h31.46.680	MR	2023.1.0	60.0515482500401	NA
mr_images/7_a.png	mr_images/7_a_z_315.png	left	ccw	45	NA	NA	NA	NA	0	212	212	171	806.9152974000899	NA	NA	NA	NA	807.4485840999987	807.4485840999987	right	0	1.4259519999613983	NA	NA	dkv	002	2026-02-10_15h31.46.680	MR	2023.1.0	60.0515482500401	NA
mr_images/4_b.png	mr_images/4_a_z_45.png	right	cw	45	NA	NA	NA	NA	0	213	213	108	808.8984964999836	NA	NA	NA	NA	809.4315853000153	809.4315853000153	left	0	1.8056620999705049	NA	NA	dkv	002	2026-02-10_15h31.46.680	MR	2023.1.0	60.0515482500401	NA
mr_images/12_b.png	mr_images/12_b_z_225.png	left	ccw	135	NA	NA	NA	NA	0	214	214	71	811.2647736000363	NA	NA	NA	NA	811.797942000092	811.797942000092	right	0	4.8897117000306025	NA	NA	dkv	002	2026-02-10_15h31.46.680	MR	2023.1.0	60.0515482500401	NA
mr_images/3_b.png	mr_images/3_b_z_135.png	left	cw	135	NA	NA	NA	NA	0	215	215	93	816.713895300054	NA	NA	NA	NA	817.2473753000377	817.2473753000377	right	0	1.5904869999503717	NA	NA	dkv	002	2026-02-10_15h31.46.680	MR	2023.1.0	60.0515482500401	NA
NA	NA	NA	NA	NA	NA	NA	NA	NA	NA	NA	NA	NA	NA	NA	NA	NA	NA	NA	NA	NA	NA	NA	818.8636756000342	820.8633770000888	NA	NA	NA	NA	NA	NA	NA
