imagefile	stimfile	corrAns	MRdir	angle	training.thisRepN	training.thisTrialN	training.thisN	training.thisIndex	mentalrot_trials.thisRepN	mentalrot_trials.thisTrialN	mentalrot_trials.thisN	mentalrot_trials.thisIndex	blank.started	mr_answ_2.started	mr_answ_2.keys	mr_answ_2.corr	mr_answ_2.rt	blank.stopped	mr_answ.started	mr_answ.keys	mr_answ.corr	mr_answ.rt	byebye_text.started	byebye_text.stopped	participant	session	date	expName	psychopyVersion	frameRate	...32
mr_images/6_b.png	mr_images/6_a_z_135.png	right	cw	135	0	0	0	164	NA	NA	NA	NA	101.48633049987257	101.98637309996413	left	0	4.207068100105971	NA	NA	NA	NA	NA	NA	NA	rsd	001	2026-03-17_13h49.29.176	MR	2023.1.0	60.00765706328852	NA
mr_images/11_b.png	mr_images/11_a_z_45.png	right	cw	45	0	1	1	36	NA	NA	NA	NA	106.2690429999493	106.80683350004256	left	0	2.670728000346571	106.80683350004256	NA	NA	NA	NA	NA	NA	rsd	001	2026-03-17_13h49.29.176	MR	2023.1.0	60.00765706328852	NA
mr_images/1_b.png	mr_images/1_b_z_270.png	left	ccw	90	0	2	2	19	NA	NA	NA	NA	109.50626560021192	110.08628940023482	left	1	3.3996619004756212	110.08628940023482	NA	NA	NA	NA	NA	NA	rsd	001	2026-03-17_13h49.29.176	MR	2023.1.0	60.00765706328852	NA
mr_images/9_b.png	mr_images/9_a_z_270.png	right	ccw	90	0	3	3	210	NA	NA	NA	NA	113.51862059999256	114.08487679995596	left	0	2.057523500174284	114.08487679995596	NA	NA	NA	NA	NA	NA	rsd	001	2026-03-17_13h49.29.176	MR	2023.1.0	60.00765706328852	NA
mr_images/3_a.png	mr_images/3_b_z_315.png	right	ccw	45	0	4	4	74	NA	NA	NA	NA	116.16773890005425	116.7510267002508	left	0	2.6818455001339316	116.7510267002508	NA	NA	NA	NA	NA	NA	rsd	001	2026-03-17_13h49.29.176	MR	2023.1.0	60.00765706328852	NA
mr_images/4_b.png	mr_images/4_b_z_225.png	left	ccw	135	NA	NA	NA	NA	0	0	0	119	124.56658270023765	NA	NA	NA	NA	NA	125.08302879985422	right	0	3.9785727001726623	NA	NA	rsd	001	2026-03-17_13h49.29.176	MR	2023.1.0	60.00765706328852	NA
mr_images/1_a.png	mr_images/1_b_z_135.png	right	cw	135	NA	NA	NA	NA	0	1	1	8	129.082735999953	NA	NA	NA	NA	129.64918910013512	129.64918910013512	None	0	NA	NA	NA	rsd	001	2026-03-17_13h49.29.176	MR	2023.1.0	60.00765706328852	NA
mr_images/11_b.png	mr_images/11_a_z_270.png	right	ccw	90	NA	NA	NA	NA	0	2	2	42	134.59857860021293	NA	NA	NA	NA	NA	135.1484575001523	left	0	2.6623869999311864	NA	NA	rsd	001	2026-03-17_13h49.29.176	MR	2023.1.0	60.00765706328852	NA
mr_images/9_a.png	mr_images/9_a_z_225.png	left	ccw	135	NA	NA	NA	NA	0	3	3	203	137.83142249984667	NA	NA	NA	NA	138.4146734001115	138.4146734001115	left	1	1.9314005002379415	NA	NA	rsd	001	2026-03-17_13h49.29.176	MR	2023.1.0	60.00765706328852	NA
mr_images/9_a.png	mr_images/9_a_z_270.png	left	ccw	90	NA	NA	NA	NA	0	4	4	199	140.36440660012886	NA	NA	NA	NA	140.88081859983504	140.88081859983504	left	1	2.079567600507289	NA	NA	rsd	001	2026-03-17_13h49.29.176	MR	2023.1.0	60.00765706328852	NA
mr_images/4_a.png	mr_images/4_b_z_90.png	right	cw	90	NA	NA	NA	NA	0	5	5	100	142.98076950013638	NA	NA	NA	NA	143.53132370021194	143.53132370021194	left	0	2.9902984998188913	NA	NA	rsd	001	2026-03-17_13h49.29.176	MR	2023.1.0	60.00765706328852	NA
mr_images/1_b.png	mr_images/1_a_z_225.png	right	ccw	135	NA	NA	NA	NA	0	6	6	22	146.54698330024257	NA	NA	NA	NA	147.0994962998666	147.0994962998666	left	0	3.56378690013662	NA	NA	rsd	001	2026-03-17_13h49.29.176	MR	2023.1.0	60.00765706328852	NA
mr_images/4_a.png	mr_images/4_b_z_225.png	right	ccw	135	NA	NA	NA	NA	0	7	7	106	150.68385609984398	NA	NA	NA	NA	151.22965170023963	151.22965170023963	right	1	3.0221782997250557	NA	NA	rsd	001	2026-03-17_13h49.29.176	MR	2023.1.0	60.00765706328852	NA
mr_images/7_b.png	mr_images/7_b_z_45.png	left	cw	45	NA	NA	NA	NA	0	8	8	181	154.27905280003324	NA	NA	NA	NA	154.84576420020312	154.84576420020312	left	1	2.096936000045389	NA	NA	rsd	001	2026-03-17_13h49.29.176	MR	2023.1.0	60.00765706328852	NA
mr_images/1_b.png	mr_images/1_a_z_45.png	right	cw	45	NA	NA	NA	NA	0	9	9	12	156.96206980012357	NA	NA	NA	NA	157.5286882999353	157.5286882999353	right	1	2.1953092999756336	NA	NA	rsd	001	2026-03-17_13h49.29.176	MR	2023.1.0	60.00765706328852	NA
mr_images/9_b.png	mr_images/9_b_z_90.png	left	cw	90	NA	NA	NA	NA	0	10	10	209	159.7450880999677	NA	NA	NA	NA	160.29546689987183	160.29546689987183	left	1	2.092237500473857	NA	NA	rsd	001	2026-03-17_13h49.29.176	MR	2023.1.0	60.00765706328852	NA
mr_images/12_a.png	mr_images/12_a_z_135.png	left	cw	135	NA	NA	NA	NA	0	11	11	57	162.41139440005645	NA	NA	NA	NA	162.9987113000825	162.9987113000825	left	1	1.9342454001307487	NA	NA	rsd	001	2026-03-17_13h49.29.176	MR	2023.1.0	60.00765706328852	NA
mr_images/9_b.png	mr_images/9_a_z_90.png	right	cw	90	NA	NA	NA	NA	0	12	12	208	164.9484991999343	NA	NA	NA	NA	165.51480829995126	165.51480829995126	right	1	3.158760500140488	NA	NA	rsd	001	2026-03-17_13h49.29.176	MR	2023.1.0	60.00765706328852	NA
mr_images/5_b.png	mr_images/5_b_z_90.png	left	cw	90	NA	NA	NA	NA	0	13	13	137	168.6980387000367	NA	NA	NA	NA	169.26019630022347	169.26019630022347	left	1	3.105546799954027	NA	NA	rsd	001	2026-03-17_13h49.29.176	MR	2023.1.0	60.00765706328852	NA
mr_images/9_a.png	mr_images/9_b_z_225.png	right	ccw	135	NA	NA	NA	NA	0	14	14	202	172.3933414001949	NA	NA	NA	NA	172.94328649993986	172.94328649993986	left	0	2.122249700129032	NA	NA	rsd	001	2026-03-17_13h49.29.176	MR	2023.1.0	60.00765706328852	NA
mr_images/6_a.png	mr_images/6_b_z_225.png	right	ccw	135	NA	NA	NA	NA	0	15	15	154	175.0932177999057	NA	NA	NA	NA	175.67985770013183	175.67985770013183	left	0	2.7574886004440486	NA	NA	rsd	001	2026-03-17_13h49.29.176	MR	2023.1.0	60.00765706328852	NA
mr_images/5_a.png	mr_images/5_a_z_225.png	left	ccw	135	NA	NA	NA	NA	0	16	16	131	178.46327980002388	NA	NA	NA	NA	179.00864910008386	179.00864910008386	left	1	1.8364145001396537	NA	NA	rsd	001	2026-03-17_13h49.29.176	MR	2023.1.0	60.00765706328852	NA
mr_images/11_b.png	mr_images/11_a_z_135.png	right	cw	135	NA	NA	NA	NA	0	17	17	44	180.87550240010023	NA	NA	NA	NA	181.42522440012544	181.42522440012544	left	0	2.6746267997659743	NA	NA	rsd	001	2026-03-17_13h49.29.176	MR	2023.1.0	60.00765706328852	NA
mr_images/4_b.png	mr_images/4_b_z_135.png	left	cw	135	NA	NA	NA	NA	0	18	18	117	184.12489499989897	NA	NA	NA	NA	184.6916046999395	184.6916046999395	right	0	2.874519299715758	NA	NA	rsd	001	2026-03-17_13h49.29.176	MR	2023.1.0	60.00765706328852	NA
mr_images/7_b.png	mr_images/7_b_z_225.png	left	ccw	135	NA	NA	NA	NA	0	19	19	191	187.5911836000159	NA	NA	NA	NA	188.1577818002552	188.1577818002552	right	0	4.622552500106394	NA	NA	rsd	001	2026-03-17_13h49.29.176	MR	2023.1.0	60.00765706328852	NA
mr_images/9_b.png	mr_images/9_b_z_315.png	left	ccw	45	NA	NA	NA	NA	0	20	20	207	192.80709670018405	NA	NA	NA	NA	193.3736920999363	193.3736920999363	right	0	2.4269942003302276	NA	NA	rsd	001	2026-03-17_13h49.29.176	MR	2023.1.0	60.00765706328852	NA
mr_images/5_a.png	mr_images/5_a_z_45.png	left	cw	45	NA	NA	NA	NA	0	21	21	121	195.8233687002212	NA	NA	NA	NA	196.3732702000998	196.3732702000998	left	1	2.1514992001466453	NA	NA	rsd	001	2026-03-17_13h49.29.176	MR	2023.1.0	60.00765706328852	NA
mr_images/11_b.png	mr_images/11_b_z_45.png	left	cw	45	NA	NA	NA	NA	0	22	22	37	198.55634339991957	NA	NA	NA	NA	199.12293410021812	199.12293410021812	left	1	3.066138499882072	NA	NA	rsd	001	2026-03-17_13h49.29.176	MR	2023.1.0	60.00765706328852	NA
mr_images/11_b.png	mr_images/11_a_z_225.png	right	ccw	135	NA	NA	NA	NA	0	23	23	46	202.20585419982672	NA	NA	NA	NA	202.7596169002354	202.7596169002354	right	1	2.226973300334066	NA	NA	rsd	001	2026-03-17_13h49.29.176	MR	2023.1.0	60.00765706328852	NA
mr_images/1_b.png	mr_images/1_b_z_135.png	left	cw	135	NA	NA	NA	NA	0	24	24	21	205.00547510012984	NA	NA	NA	NA	205.5386954001151	205.5386954001151	right	0	1.9113242998719215	NA	NA	rsd	001	2026-03-17_13h49.29.176	MR	2023.1.0	60.00765706328852	NA
mr_images/11_a.png	mr_images/11_b_z_135.png	right	cw	135	NA	NA	NA	NA	0	25	25	32	207.47182130021977	NA	NA	NA	NA	208.04336610017344	208.04336610017344	left	0	2.795336800161749	NA	NA	rsd	001	2026-03-17_13h49.29.176	MR	2023.1.0	60.00765706328852	NA
mr_images/4_a.png	mr_images/4_b_z_45.png	right	cw	45	NA	NA	NA	NA	0	26	26	96	210.8589055002667	NA	NA	NA	NA	211.4082029000856	211.4082029000856	left	0	2.1709199002943933	NA	NA	rsd	001	2026-03-17_13h49.29.176	MR	2023.1.0	60.00765706328852	NA
mr_images/1_a.png	mr_images/1_b_z_90.png	right	cw	90	NA	NA	NA	NA	0	27	27	4	213.6084640999325	NA	NA	NA	NA	214.1706746001728	214.1706746001728	left	0	2.675417900085449	NA	NA	rsd	001	2026-03-17_13h49.29.176	MR	2023.1.0	60.00765706328852	NA
mr_images/11_b.png	mr_images/11_a_z_45.png	right	cw	45	NA	NA	NA	NA	0	28	28	36	216.8704119999893	NA	NA	NA	NA	217.40377089986575	217.40377089986575	left	0	2.420034300070256	NA	NA	rsd	001	2026-03-17_13h49.29.176	MR	2023.1.0	60.00765706328852	NA
mr_images/1_a.png	mr_images/1_a_z_270.png	left	ccw	90	NA	NA	NA	NA	0	29	29	7	219.85626959986985	NA	NA	NA	NA	NA	220.41990419989452	left	1	1.7911526998504996	NA	NA	rsd	001	2026-03-17_13h49.29.176	MR	2023.1.0	60.00765706328852	NA
mr_images/6_b.png	mr_images/6_a_z_270.png	right	ccw	90	NA	NA	NA	NA	0	30	30	162	222.23635700019076	NA	NA	NA	NA	222.78627520008013	222.78627520008013	left	0	1.8143779002130032	NA	NA	rsd	001	2026-03-17_13h49.29.176	MR	2023.1.0	60.00765706328852	NA
mr_images/12_a.png	mr_images/12_b_z_90.png	right	cw	90	NA	NA	NA	NA	0	31	31	52	224.61941489996389	NA	NA	NA	NA	225.16931950021535	225.16931950021535	left	0	1.4169374997727573	NA	NA	rsd	001	2026-03-17_13h49.29.176	MR	2023.1.0	60.00765706328852	NA
mr_images/3_b.png	mr_images/3_b_z_225.png	left	ccw	135	NA	NA	NA	NA	0	32	32	95	226.60246540000665	NA	NA	NA	NA	227.18590679997575	227.18590679997575	left	1	1.684523900039494	NA	NA	rsd	001	2026-03-17_13h49.29.176	MR	2023.1.0	60.00765706328852	NA
mr_images/1_a.png	mr_images/1_b_z_270.png	right	ccw	90	NA	NA	NA	NA	0	33	33	6	228.90214389981705	NA	NA	NA	NA	229.4353289999999	229.4353289999999	left	0	2.7568739000707865	NA	NA	rsd	001	2026-03-17_13h49.29.176	MR	2023.1.0	60.00765706328852	NA
mr_images/12_a.png	mr_images/12_b_z_315.png	right	ccw	45	NA	NA	NA	NA	0	34	34	50	232.2183209001087	NA	NA	NA	NA	232.77497110003603	232.77497110003603	left	0	1.22424119990319	NA	NA	rsd	001	2026-03-17_13h49.29.176	MR	2023.1.0	60.00765706328852	NA
mr_images/12_a.png	mr_images/12_a_z_315.png	left	ccw	45	NA	NA	NA	NA	0	35	35	51	234.02237639995292	NA	NA	NA	NA	234.58461710019037	234.58461710019037	left	1	1.5654631000943482	NA	NA	rsd	001	2026-03-17_13h49.29.176	MR	2023.1.0	60.00765706328852	NA
mr_images/3_b.png	mr_images/3_a_z_225.png	right	ccw	135	NA	NA	NA	NA	0	36	36	94	236.16780050005764	NA	NA	NA	NA	236.71779779996723	236.71779779996723	right	1	1.6705854004248977	NA	NA	rsd	001	2026-03-17_13h49.29.176	MR	2023.1.0	60.00765706328852	NA
mr_images/1_a.png	mr_images/1_a_z_225.png	left	ccw	135	NA	NA	NA	NA	0	37	37	11	238.41746099991724	NA	NA	NA	NA	238.9506931002252	238.9506931002252	right	0	3.4283956000581384	NA	NA	rsd	001	2026-03-17_13h49.29.176	MR	2023.1.0	60.00765706328852	NA
mr_images/5_b.png	mr_images/5_a_z_90.png	right	cw	90	NA	NA	NA	NA	0	38	38	136	242.40030620014295	NA	NA	NA	NA	242.96703709987924	242.96703709987924	left	0	1.56203080015257	NA	NA	rsd	001	2026-03-17_13h49.29.176	MR	2023.1.0	60.00765706328852	NA
mr_images/6_a.png	mr_images/6_a_z_225.png	left	ccw	135	NA	NA	NA	NA	0	39	39	155	244.5499557000585	NA	NA	NA	NA	245.1008128998801	245.1008128998801	left	1	3.217612999957055	NA	NA	rsd	001	2026-03-17_13h49.29.176	MR	2023.1.0	60.00765706328852	NA
mr_images/7_b.png	mr_images/7_b_z_270.png	left	ccw	90	NA	NA	NA	NA	0	40	40	187	248.3493657000363	NA	NA	NA	NA	248.9160123001784	248.9160123001784	left	1	2.097556999884546	NA	NA	rsd	001	2026-03-17_13h49.29.176	MR	2023.1.0	60.00765706328852	NA
mr_images/1_a.png	mr_images/1_a_z_135.png	left	cw	135	NA	NA	NA	NA	0	41	41	9	251.03245129995048	NA	NA	NA	NA	251.5989310001023	251.5989310001023	left	1	1.143407499883324	NA	NA	rsd	001	2026-03-17_13h49.29.176	MR	2023.1.0	60.00765706328852	NA
mr_images/6_a.png	mr_images/6_b_z_90.png	right	cw	90	NA	NA	NA	NA	0	42	42	148	252.765526200179	NA	NA	NA	NA	253.3153119999915	253.3153119999915	left	0	0.9618501998484136	NA	NA	rsd	001	2026-03-17_13h49.29.176	MR	2023.1.0	60.00765706328852	NA
mr_images/6_b.png	mr_images/6_b_z_270.png	left	ccw	90	NA	NA	NA	NA	0	43	43	163	254.29860820015892	NA	NA	NA	NA	254.8653628001921	254.8653628001921	left	1	1.3883343003690245	NA	NA	rsd	001	2026-03-17_13h49.29.176	MR	2023.1.0	60.00765706328852	NA
mr_images/9_a.png	mr_images/9_b_z_45.png	right	cw	45	NA	NA	NA	NA	0	44	44	192	256.28166980016977	NA	NA	NA	NA	256.83131270017475	256.83131270017475	left	0	1.0489898999221623	NA	NA	rsd	001	2026-03-17_13h49.29.176	MR	2023.1.0	60.00765706328852	NA
mr_images/9_b.png	mr_images/9_b_z_45.png	left	cw	45	NA	NA	NA	NA	0	45	45	205	257.8979185000062	NA	NA	NA	NA	258.43302270025015	258.43302270025015	left	1	1.2590573001652956	NA	NA	rsd	001	2026-03-17_13h49.29.176	MR	2023.1.0	60.00765706328852	NA
mr_images/11_b.png	mr_images/11_b_z_135.png	left	cw	135	NA	NA	NA	NA	0	46	46	45	259.71867119986564	NA	NA	NA	NA	260.25134389987215	260.25134389987215	left	1	1.5398158002644775	NA	NA	rsd	001	2026-03-17_13h49.29.176	MR	2023.1.0	60.00765706328852	NA
mr_images/5_a.png	mr_images/5_b_z_270.png	right	ccw	90	NA	NA	NA	NA	0	47	47	126	261.8184434999712	NA	NA	NA	NA	262.369301199913	262.369301199913	left	0	1.8105822000652552	NA	NA	rsd	001	2026-03-17_13h49.29.176	MR	2023.1.0	60.00765706328852	NA
mr_images/12_b.png	mr_images/12_a_z_45.png	right	cw	45	NA	NA	NA	NA	0	48	48	60	264.2015094999224	NA	NA	NA	NA	264.78047550003976	264.78047550003976	left	0	1.1492576003074646	NA	NA	rsd	001	2026-03-17_13h49.29.176	MR	2023.1.0	60.00765706328852	NA
mr_images/4_a.png	mr_images/4_b_z_270.png	right	ccw	90	NA	NA	NA	NA	0	49	49	102	265.94698530016467	NA	NA	NA	NA	266.49660240020603	266.49660240020603	left	0	3.033921000082046	NA	NA	rsd	001	2026-03-17_13h49.29.176	MR	2023.1.0	60.00765706328852	NA
mr_images/11_b.png	mr_images/11_b_z_315.png	left	ccw	45	NA	NA	NA	NA	0	50	50	39	269.5631703999825	NA	NA	NA	NA	270.12973350007087	270.12973350007087	left	1	1.126048699952662	NA	NA	rsd	001	2026-03-17_13h49.29.176	MR	2023.1.0	60.00765706328852	NA
mr_images/12_a.png	mr_images/12_b_z_45.png	right	cw	45	NA	NA	NA	NA	0	51	51	48	271.2797130001709	NA	NA	NA	NA	271.8461929000914	271.8461929000914	right	1	1.3137958999723196	NA	NA	rsd	001	2026-03-17_13h49.29.176	MR	2023.1.0	60.00765706328852	NA
mr_images/9_a.png	mr_images/9_b_z_270.png	right	ccw	90	NA	NA	NA	NA	0	52	52	198	273.17926120013	NA	NA	NA	NA	273.7289081001654	273.7289081001654	left	0	1.7677933000959456	NA	NA	rsd	001	2026-03-17_13h49.29.176	MR	2023.1.0	60.00765706328852	NA
mr_images/3_a.png	mr_images/3_b_z_270.png	right	ccw	90	NA	NA	NA	NA	0	53	53	78	275.52898810012266	NA	NA	NA	NA	276.09589840006083	276.09589840006083	left	0	2.1331178001128137	NA	NA	rsd	001	2026-03-17_13h49.29.176	MR	2023.1.0	60.00765706328852	NA
mr_images/6_b.png	mr_images/6_a_z_90.png	right	cw	90	NA	NA	NA	NA	0	54	54	160	278.2452830001712	NA	NA	NA	NA	278.7971314000897	278.7971314000897	left	0	2.3892890005372465	NA	NA	rsd	001	2026-03-17_13h49.29.176	MR	2023.1.0	60.00765706328852	NA
mr_images/5_a.png	mr_images/5_a_z_270.png	left	ccw	90	NA	NA	NA	NA	0	55	55	127	281.21575149986893	NA	NA	NA	NA	281.76752729993314	281.76752729993314	right	0	1.992068599909544	NA	NA	rsd	001	2026-03-17_13h49.29.176	MR	2023.1.0	60.00765706328852	NA
mr_images/11_b.png	mr_images/11_a_z_315.png	right	ccw	45	NA	NA	NA	NA	0	56	56	38	283.7820680998266	NA	NA	NA	NA	284.34445460001007	284.34445460001007	left	0	2.081905400380492	NA	NA	rsd	001	2026-03-17_13h49.29.176	MR	2023.1.0	60.00765706328852	NA
mr_images/12_a.png	mr_images/12_b_z_225.png	right	ccw	135	NA	NA	NA	NA	0	57	57	58	286.44455950008705	NA	NA	NA	NA	286.9975681998767	286.9975681998767	left	0	2.6005633999593556	NA	NA	rsd	001	2026-03-17_13h49.29.176	MR	2023.1.0	60.00765706328852	NA
mr_images/5_b.png	mr_images/5_a_z_45.png	right	cw	45	NA	NA	NA	NA	0	58	58	132	289.61459079990163	NA	NA	NA	NA	290.1466033998877	290.1466033998877	left	0	1.6138094998896122	NA	NA	rsd	001	2026-03-17_13h49.29.176	MR	2023.1.0	60.00765706328852	NA
mr_images/11_a.png	mr_images/11_a_z_315.png	left	ccw	45	NA	NA	NA	NA	0	59	59	27	291.78094260022044	NA	NA	NA	NA	292.3104326999746	292.3104326999746	right	0	1.2461010003462434	NA	NA	rsd	001	2026-03-17_13h49.29.176	MR	2023.1.0	60.00765706328852	NA
mr_images/9_b.png	mr_images/9_a_z_135.png	right	cw	135	NA	NA	NA	NA	0	60	60	212	293.5767999999225	NA	NA	NA	NA	294.1432431000285	294.1432431000285	left	0	1.7904858998954296	NA	NA	rsd	001	2026-03-17_13h49.29.176	MR	2023.1.0	60.00765706328852	NA
mr_images/9_b.png	mr_images/9_a_z_270.png	right	ccw	90	NA	NA	NA	NA	0	61	61	210	295.95951800001785	NA	NA	NA	NA	296.49244579998776	296.49244579998776	left	0	1.4584939000196755	NA	NA	rsd	001	2026-03-17_13h49.29.176	MR	2023.1.0	60.00765706328852	NA
mr_images/1_a.png	mr_images/1_b_z_315.png	right	ccw	45	NA	NA	NA	NA	0	62	62	2	297.9758485001512	NA	NA	NA	NA	298.5257093999535	298.5257093999535	left	0	1.452839500270784	NA	NA	rsd	001	2026-03-17_13h49.29.176	MR	2023.1.0	60.00765706328852	NA
mr_images/1_b.png	mr_images/1_b_z_90.png	left	cw	90	NA	NA	NA	NA	0	63	63	17	300.0088557000272	NA	NA	NA	NA	300.5280634998344	300.5280634998344	left	1	2.0980543000623584	NA	NA	rsd	001	2026-03-17_13h49.29.176	MR	2023.1.0	60.00765706328852	NA
mr_images/1_b.png	mr_images/1_b_z_270.png	left	ccw	90	NA	NA	NA	NA	0	64	64	19	302.6460766000673	NA	NA	NA	NA	303.17507820017636	303.17507820017636	left	1	1.997175400145352	NA	NA	rsd	001	2026-03-17_13h49.29.176	MR	2023.1.0	60.00765706328852	NA
mr_images/9_a.png	mr_images/9_a_z_315.png	left	ccw	45	NA	NA	NA	NA	0	65	65	195	305.1914081000723	NA	NA	NA	NA	305.7305712001398	305.7305712001398	left	1	1.5849771001376212	NA	NA	rsd	001	2026-03-17_13h49.29.176	MR	2023.1.0	60.00765706328852	NA
mr_images/9_b.png	mr_images/9_a_z_45.png	right	cw	45	NA	NA	NA	NA	0	66	66	204	307.34548150002956	NA	NA	NA	NA	307.8909950000234	307.8909950000234	left	0	1.5344572002068162	NA	NA	rsd	001	2026-03-17_13h49.29.176	MR	2023.1.0	60.00765706328852	NA
mr_images/12_b.png	mr_images/12_a_z_135.png	right	cw	135	NA	NA	NA	NA	0	67	67	68	309.4576820000075	NA	NA	NA	NA	309.9908027998172	309.9908027998172	left	0	1.778589800465852	NA	NA	rsd	001	2026-03-17_13h49.29.176	MR	2023.1.0	60.00765706328852	NA
mr_images/5_b.png	mr_images/5_b_z_225.png	left	ccw	135	NA	NA	NA	NA	0	68	68	143	311.7906386000104	NA	NA	NA	NA	312.3404541001655	312.3404541001655	left	1	1.4812517003156245	NA	NA	rsd	001	2026-03-17_13h49.29.176	MR	2023.1.0	60.00765706328852	NA
mr_images/12_b.png	mr_images/12_a_z_270.png	right	ccw	90	NA	NA	NA	NA	0	69	69	66	313.84043039986864	NA	NA	NA	NA	314.3902194998227	314.3902194998227	left	0	1.2538844998925924	NA	NA	rsd	001	2026-03-17_13h49.29.176	MR	2023.1.0	60.00765706328852	NA
mr_images/6_b.png	mr_images/6_b_z_45.png	left	cw	45	NA	NA	NA	NA	0	70	70	157	315.67347180005163	NA	NA	NA	NA	316.2278471002355	316.2278471002355	left	1	1.3827361003495753	NA	NA	rsd	001	2026-03-17_13h49.29.176	MR	2023.1.0	60.00765706328852	NA
mr_images/4_a.png	mr_images/4_a_z_270.png	left	ccw	90	NA	NA	NA	NA	0	71	71	103	317.627379800193	NA	NA	NA	NA	318.1894344999455	318.1894344999455	left	1	2.1941297999583185	NA	NA	rsd	001	2026-03-17_13h49.29.176	MR	2023.1.0	60.00765706328852	NA
mr_images/9_a.png	mr_images/9_a_z_45.png	left	cw	45	NA	NA	NA	NA	0	72	72	193	320.4061893001199	NA	NA	NA	NA	320.9432973000221	320.9432973000221	left	1	1.4294071001932025	NA	NA	rsd	001	2026-03-17_13h49.29.176	MR	2023.1.0	60.00765706328852	NA
mr_images/6_b.png	mr_images/6_b_z_135.png	left	cw	135	NA	NA	NA	NA	0	73	73	165	322.39335000002757	NA	NA	NA	NA	322.92534360010177	322.92534360010177	left	1	2.5248944000341	NA	NA	rsd	001	2026-03-17_13h49.29.176	MR	2023.1.0	60.00765706328852	NA
mr_images/7_b.png	mr_images/7_b_z_315.png	left	ccw	45	NA	NA	NA	NA	0	74	74	183	325.47630270011723	NA	NA	NA	NA	326.03860309999436	326.03860309999436	left	1	1.4153236001729963	NA	NA	rsd	001	2026-03-17_13h49.29.176	MR	2023.1.0	60.00765706328852	NA
mr_images/4_b.png	mr_images/4_a_z_90.png	right	cw	90	NA	NA	NA	NA	0	75	75	112	327.47176809981465	NA	NA	NA	NA	328.0220552999526	328.0220552999526	left	0	2.5653221998363733	NA	NA	rsd	001	2026-03-17_13h49.29.176	MR	2023.1.0	60.00765706328852	NA
mr_images/5_a.png	mr_images/5_b_z_135.png	right	cw	135	NA	NA	NA	NA	0	76	76	128	330.6046624002047	NA	NA	NA	NA	331.16063810000196	331.16063810000196	left	0	1.280924300197512	NA	NA	rsd	001	2026-03-17_13h49.29.176	MR	2023.1.0	60.00765706328852	NA
mr_images/3_b.png	mr_images/3_a_z_135.png	right	cw	135	NA	NA	NA	NA	0	77	77	92	332.45863289991394	NA	NA	NA	NA	333.0209468998946	333.0209468998946	left	0	1.937766400165856	NA	NA	rsd	001	2026-03-17_13h49.29.176	MR	2023.1.0	60.00765706328852	NA
mr_images/5_b.png	mr_images/5_b_z_270.png	left	ccw	90	NA	NA	NA	NA	0	78	78	139	334.9875087002292	NA	NA	NA	NA	335.5203390000388	335.5203390000388	right	0	2.0208311998285353	NA	NA	rsd	001	2026-03-17_13h49.29.176	MR	2023.1.0	60.00765706328852	NA
mr_images/4_a.png	mr_images/4_a_z_135.png	left	cw	135	NA	NA	NA	NA	0	79	79	105	337.57040840014815	NA	NA	NA	NA	338.1226964001544	338.1226964001544	left	1	1.6581322001293302	NA	NA	rsd	001	2026-03-17_13h49.29.176	MR	2023.1.0	60.00765706328852	NA
mr_images/11_a.png	mr_images/11_b_z_225.png	right	ccw	135	NA	NA	NA	NA	0	80	80	34	339.80757860001177	NA	NA	NA	NA	340.35410219989717	340.35410219989717	right	1	1.7211229000240564	NA	NA	rsd	001	2026-03-17_13h49.29.176	MR	2023.1.0	60.00765706328852	NA
mr_images/3_a.png	mr_images/3_b_z_45.png	right	cw	45	NA	NA	NA	NA	0	81	81	72	342.10308430017903	NA	NA	NA	NA	342.6696097999811	342.6696097999811	left	0	2.589526399970054	NA	NA	rsd	001	2026-03-17_13h49.29.176	MR	2023.1.0	60.00765706328852	NA
mr_images/12_b.png	mr_images/12_b_z_90.png	left	cw	90	NA	NA	NA	NA	0	82	82	65	345.2859408999793	NA	NA	NA	NA	345.81919849989936	345.81919849989936	left	1	1.3202658998779953	NA	NA	rsd	001	2026-03-17_13h49.29.176	MR	2023.1.0	60.00765706328852	NA
mr_images/12_a.png	mr_images/12_b_z_270.png	right	ccw	90	NA	NA	NA	NA	0	83	83	54	347.16904899990186	NA	NA	NA	NA	347.7356901001185	347.7356901001185	left	0	1.4989831000566485	NA	NA	rsd	001	2026-03-17_13h49.29.176	MR	2023.1.0	60.00765706328852	NA
mr_images/5_b.png	mr_images/5_a_z_270.png	right	ccw	90	NA	NA	NA	NA	0	84	84	138	349.2521370998584	NA	NA	NA	NA	349.7854152000509	349.7854152000509	left	0	1.487680200021714	NA	NA	rsd	001	2026-03-17_13h49.29.176	MR	2023.1.0	60.00765706328852	NA
mr_images/6_b.png	mr_images/6_a_z_135.png	right	cw	135	NA	NA	NA	NA	0	85	85	164	351.3017648002133	NA	NA	NA	NA	351.8350070999004	351.8350070999004	left	0	2.233099600300193	NA	NA	rsd	001	2026-03-17_13h49.29.176	MR	2023.1.0	60.00765706328852	NA
mr_images/7_a.png	mr_images/7_b_z_315.png	right	ccw	45	NA	NA	NA	NA	0	86	86	170	354.08483960013837	NA	NA	NA	NA	354.6513573001139	354.6513573001139	left	0	0.9549241000786424	NA	NA	rsd	001	2026-03-17_13h49.29.176	MR	2023.1.0	60.00765706328852	NA
mr_images/5_b.png	mr_images/5_b_z_135.png	left	cw	135	NA	NA	NA	NA	0	87	87	141	355.6345561002381	NA	NA	NA	NA	356.1676353001967	356.1676353001967	left	1	2.466997600160539	NA	NA	rsd	001	2026-03-17_13h49.29.176	MR	2023.1.0	60.00765706328852	NA
mr_images/6_a.png	mr_images/6_b_z_45.png	right	cw	45	NA	NA	NA	NA	0	88	88	144	358.6508450000547	NA	NA	NA	NA	359.1840694998391	359.1840694998391	right	1	1.518882000353187	NA	NA	rsd	001	2026-03-17_13h49.29.176	MR	2023.1.0	60.00765706328852	NA
mr_images/12_b.png	mr_images/12_b_z_135.png	left	cw	135	NA	NA	NA	NA	0	89	89	69	360.73385100020096	NA	NA	NA	NA	361.3002104000189	361.3002104000189	left	1	1.3504746002145112	NA	NA	rsd	001	2026-03-17_13h49.29.176	MR	2023.1.0	60.00765706328852	NA
mr_images/12_b.png	mr_images/12_a_z_315.png	right	ccw	45	NA	NA	NA	NA	0	90	90	62	362.6668346002698	NA	NA	NA	NA	363.2001681001857	363.2001681001857	left	0	1.7354871002025902	NA	NA	rsd	001	2026-03-17_13h49.29.176	MR	2023.1.0	60.00765706328852	NA
mr_images/5_b.png	mr_images/5_a_z_135.png	right	cw	135	NA	NA	NA	NA	0	91	91	140	364.966697699856	NA	NA	NA	NA	365.5331343999133	365.5331343999133	left	0	2.5059593999758363	NA	NA	rsd	001	2026-03-17_13h49.29.176	MR	2023.1.0	60.00765706328852	NA
mr_images/11_a.png	mr_images/11_a_z_225.png	left	ccw	135	NA	NA	NA	NA	0	92	92	35	368.0662169000134	NA	NA	NA	NA	368.59933560015634	368.59933560015634	right	0	3.1759775998070836	NA	NA	rsd	001	2026-03-17_13h49.29.176	MR	2023.1.0	60.00765706328852	NA
mr_images/4_b.png	mr_images/4_a_z_270.png	right	ccw	90	NA	NA	NA	NA	0	93	93	114	371.79909530002624	NA	NA	NA	NA	372.3322029002011	372.3322029002011	left	0	2.091500499751419	NA	NA	rsd	001	2026-03-17_13h49.29.176	MR	2023.1.0	60.00765706328852	NA
mr_images/11_b.png	mr_images/11_b_z_270.png	left	ccw	90	NA	NA	NA	NA	0	94	94	43	374.4486060999334	NA	NA	NA	NA	375.0151821002364	375.0151821002364	left	1	2.508212599903345	NA	NA	rsd	001	2026-03-17_13h49.29.176	MR	2023.1.0	60.00765706328852	NA
mr_images/7_b.png	mr_images/7_a_z_315.png	right	ccw	45	NA	NA	NA	NA	0	95	95	182	377.5482605998404	NA	NA	NA	NA	378.09841099986807	378.09841099986807	left	0	2.8925748001784086	NA	NA	rsd	001	2026-03-17_13h49.29.176	MR	2023.1.0	60.00765706328852	NA
mr_images/12_a.png	mr_images/12_a_z_270.png	left	ccw	90	NA	NA	NA	NA	0	96	96	55	381.01433379994705	NA	NA	NA	NA	381.5475543998182	381.5475543998182	left	1	2.410742800217122	NA	NA	rsd	001	2026-03-17_13h49.29.176	MR	2023.1.0	60.00765706328852	NA
mr_images/12_b.png	mr_images/12_a_z_225.png	right	ccw	135	NA	NA	NA	NA	0	97	97	70	383.9805677998811	NA	NA	NA	NA	384.54732540016994	384.54732540016994	left	0	2.887578600086272	NA	NA	rsd	001	2026-03-17_13h49.29.176	MR	2023.1.0	60.00765706328852	NA
mr_images/6_a.png	mr_images/6_b_z_315.png	right	ccw	45	NA	NA	NA	NA	0	98	98	146	387.4634858001955	NA	NA	NA	NA	388.0303266001865	388.0303266001865	left	0	1.8643825999461112	NA	NA	rsd	001	2026-03-17_13h49.29.176	MR	2023.1.0	60.00765706328852	NA
mr_images/12_a.png	mr_images/12_a_z_90.png	left	cw	90	NA	NA	NA	NA	0	99	99	53	389.9130547000095	NA	NA	NA	NA	390.4631846002303	390.4631846002303	left	1	3.460274599958211	NA	NA	rsd	001	2026-03-17_13h49.29.176	MR	2023.1.0	60.00765706328852	NA
mr_images/6_a.png	mr_images/6_a_z_315.png	left	ccw	45	NA	NA	NA	NA	0	100	100	147	393.9459446002729	NA	NA	NA	NA	394.5130011998117	394.5130011998117	left	1	2.049689000006765	NA	NA	rsd	001	2026-03-17_13h49.29.176	MR	2023.1.0	60.00765706328852	NA
mr_images/6_a.png	mr_images/6_a_z_135.png	left	cw	135	NA	NA	NA	NA	0	101	101	153	396.5788064999506	NA	NA	NA	NA	397.11187390005216	397.11187390005216	left	1	1.6119595998898149	NA	NA	rsd	001	2026-03-17_13h49.29.176	MR	2023.1.0	60.00765706328852	NA
mr_images/12_b.png	mr_images/12_b_z_225.png	left	ccw	135	NA	NA	NA	NA	0	102	102	71	398.7451192000881	NA	NA	NA	NA	399.2784569002688	399.2784569002688	left	1	1.3378995000384748	NA	NA	rsd	001	2026-03-17_13h49.29.176	MR	2023.1.0	60.00765706328852	NA
mr_images/6_a.png	mr_images/6_a_z_270.png	left	ccw	90	NA	NA	NA	NA	0	103	103	151	400.6449231998995	NA	NA	NA	NA	401.17813679995015	401.17813679995015	left	1	1.070481900125742	NA	NA	rsd	001	2026-03-17_13h49.29.176	MR	2023.1.0	60.00765706328852	NA
mr_images/1_b.png	mr_images/1_b_z_225.png	left	ccw	135	NA	NA	NA	NA	0	104	104	23	402.2779919002205	NA	NA	NA	NA	402.8340587001294	402.8340587001294	right	0	2.5563178001902997	NA	NA	rsd	001	2026-03-17_13h49.29.176	MR	2023.1.0	60.00765706328852	NA
mr_images/11_b.png	mr_images/11_b_z_225.png	left	ccw	135	NA	NA	NA	NA	0	105	105	47	405.4159813001752	NA	NA	NA	NA	405.9441261999309	405.9441261999309	left	1	1.1842713998630643	NA	NA	rsd	001	2026-03-17_13h49.29.176	MR	2023.1.0	60.00765706328852	NA
mr_images/3_a.png	mr_images/3_a_z_225.png	left	ccw	135	NA	NA	NA	NA	0	106	106	83	407.1609684000723	NA	NA	NA	NA	407.6939131999388	407.6939131999388	right	0	1.9427086999639869	NA	NA	rsd	001	2026-03-17_13h49.29.176	MR	2023.1.0	60.00765706328852	NA
mr_images/5_a.png	mr_images/5_b_z_45.png	right	cw	45	NA	NA	NA	NA	0	107	107	120	409.66030099987984	NA	NA	NA	NA	410.21091250004247	410.21091250004247	right	1	2.358208700083196	NA	NA	rsd	001	2026-03-17_13h49.29.176	MR	2023.1.0	60.00765706328852	NA
mr_images/11_b.png	mr_images/11_a_z_90.png	right	cw	90	NA	NA	NA	NA	0	108	108	40	412.59334099991247	NA	NA	NA	NA	413.1312549998984	413.1312549998984	left	0	2.103543100412935	NA	NA	rsd	001	2026-03-17_13h49.29.176	MR	2023.1.0	60.00765706328852	NA
mr_images/4_b.png	mr_images/4_a_z_225.png	right	ccw	135	NA	NA	NA	NA	0	109	109	118	415.2638874999247	NA	NA	NA	NA	415.8260482000187	415.8260482000187	left	0	2.6330618001520634	NA	NA	rsd	001	2026-03-17_13h49.29.176	MR	2023.1.0	60.00765706328852	NA
mr_images/1_b.png	mr_images/1_b_z_315.png	left	ccw	45	NA	NA	NA	NA	0	110	110	15	418.475787000265	NA	NA	NA	NA	418.9983888999559	418.9983888999559	left	1	2.4006028003059328	NA	NA	rsd	001	2026-03-17_13h49.29.176	MR	2023.1.0	60.00765706328852	NA
mr_images/4_a.png	mr_images/4_b_z_135.png	right	cw	135	NA	NA	NA	NA	0	111	111	104	421.4295983002521	NA	NA	NA	NA	421.97555459989235	421.97555459989235	left	0	2.1130214002914727	NA	NA	rsd	001	2026-03-17_13h49.29.176	MR	2023.1.0	60.00765706328852	NA
mr_images/5_a.png	mr_images/5_b_z_225.png	right	ccw	135	NA	NA	NA	NA	0	112	112	130	424.10813480010256	NA	NA	NA	NA	424.64169530011714	424.64169530011714	left	0	1.2860216000117362	NA	NA	rsd	001	2026-03-17_13h49.29.176	MR	2023.1.0	60.00765706328852	NA
mr_images/3_a.png	mr_images/3_a_z_270.png	left	ccw	90	NA	NA	NA	NA	0	113	113	79	425.9581446000375	NA	NA	NA	NA	426.50820210017264	426.50820210017264	left	1	2.599587100557983	NA	NA	rsd	001	2026-03-17_13h49.29.176	MR	2023.1.0	60.00765706328852	NA
mr_images/11_a.png	mr_images/11_a_z_270.png	left	ccw	90	NA	NA	NA	NA	0	114	114	31	429.1244296999648	NA	NA	NA	NA	429.6575179002248	429.6575179002248	left	1	1.90893130004406	NA	NA	rsd	001	2026-03-17_13h49.29.176	MR	2023.1.0	60.00765706328852	NA
mr_images/4_b.png	mr_images/4_a_z_45.png	right	cw	45	NA	NA	NA	NA	0	115	115	108	431.5906210001558	NA	NA	NA	NA	432.1436863001436	432.1436863001436	left	0	1.5273271002806723	NA	NA	rsd	001	2026-03-17_13h49.29.176	MR	2023.1.0	60.00765706328852	NA
mr_images/5_b.png	mr_images/5_a_z_225.png	right	ccw	135	NA	NA	NA	NA	0	116	116	142	433.694609799888	NA	NA	NA	NA	434.2084709000774	434.2084709000774	left	0	1.531860500574112	NA	NA	rsd	001	2026-03-17_13h49.29.176	MR	2023.1.0	60.00765706328852	NA
mr_images/6_a.png	mr_images/6_a_z_90.png	left	cw	90	NA	NA	NA	NA	0	117	117	149	435.7567455000244	NA	NA	NA	NA	436.2897618999705	436.2897618999705	left	1	1.1687670005485415	NA	NA	rsd	001	2026-03-17_13h49.29.176	MR	2023.1.0	60.00765706328852	NA
mr_images/4_b.png	mr_images/4_b_z_45.png	left	cw	45	NA	NA	NA	NA	0	118	118	109	437.48996490007266	NA	NA	NA	NA	438.0230482001789	438.0230482001789	left	1	3.1577712004072964	NA	NA	rsd	001	2026-03-17_13h49.29.176	MR	2023.1.0	60.00765706328852	NA
mr_images/6_b.png	mr_images/6_b_z_225.png	left	ccw	135	NA	NA	NA	NA	0	119	119	167	441.2062854999676	NA	NA	NA	NA	441.7239100998267	441.7239100998267	left	1	3.002468400169164	NA	NA	rsd	001	2026-03-17_13h49.29.176	MR	2023.1.0	60.00765706328852	NA
mr_images/3_a.png	mr_images/3_b_z_90.png	right	cw	90	NA	NA	NA	NA	0	120	120	76	444.75554550020024	NA	NA	NA	NA	445.3220414002426	445.3220414002426	left	0	1.4038366000168023	NA	NA	rsd	001	2026-03-17_13h49.29.176	MR	2023.1.0	60.00765706328852	NA
mr_images/4_b.png	mr_images/4_b_z_315.png	left	ccw	45	NA	NA	NA	NA	0	121	121	111	446.7552537000738	NA	NA	NA	NA	447.32175339991227	447.32175339991227	left	1	1.0562616004608572	NA	NA	rsd	001	2026-03-17_13h49.29.176	MR	2023.1.0	60.00765706328852	NA
mr_images/12_b.png	mr_images/12_a_z_90.png	right	cw	90	NA	NA	NA	NA	0	122	122	64	448.40491490019485	NA	NA	NA	NA	448.938164900057	448.938164900057	left	0	1.1611463003791869	NA	NA	rsd	001	2026-03-17_13h49.29.176	MR	2023.1.0	60.00765706328852	NA
mr_images/11_a.png	mr_images/11_b_z_315.png	right	ccw	45	NA	NA	NA	NA	0	123	123	26	450.1218924000859	NA	NA	NA	NA	450.6546263000928	450.6546263000928	left	0	0.7613180000334978	NA	NA	rsd	001	2026-03-17_13h49.29.176	MR	2023.1.0	60.00765706328852	NA
mr_images/3_b.png	mr_images/3_b_z_90.png	left	cw	90	NA	NA	NA	NA	0	124	124	89	451.4380240002647	NA	NA	NA	NA	451.97117620008066	451.97117620008066	left	1	1.965051700361073	NA	NA	rsd	001	2026-03-17_13h49.29.176	MR	2023.1.0	60.00765706328852	NA
mr_images/9_b.png	mr_images/9_a_z_225.png	right	ccw	135	NA	NA	NA	NA	0	125	125	214	453.95432499982417	NA	NA	NA	NA	454.4874372999184	454.4874372999184	left	0	1.7676585000008345	NA	NA	rsd	001	2026-03-17_13h49.29.176	MR	2023.1.0	60.00765706328852	NA
mr_images/6_b.png	mr_images/6_a_z_225.png	right	ccw	135	NA	NA	NA	NA	0	126	126	166	456.2872584001161	NA	NA	NA	NA	456.82045240001753	456.82045240001753	left	0	3.2882940000854433	NA	NA	rsd	001	2026-03-17_13h49.29.176	MR	2023.1.0	60.00765706328852	NA
mr_images/7_a.png	mr_images/7_a_z_45.png	left	cw	45	NA	NA	NA	NA	0	127	127	169	460.1371078998782	NA	NA	NA	NA	460.6895037000067	460.6895037000067	left	1	1.0898417001590133	NA	NA	rsd	001	2026-03-17_13h49.29.176	MR	2023.1.0	60.00765706328852	NA
mr_images/7_a.png	mr_images/7_a_z_315.png	left	ccw	45	NA	NA	NA	NA	0	128	128	171	461.8073678999208	NA	NA	NA	NA	NA	462.3532802001573	right	0	1.2098938003182411	NA	NA	rsd	001	2026-03-17_13h49.29.176	MR	2023.1.0	60.00765706328852	NA
mr_images/4_b.png	mr_images/4_b_z_90.png	left	cw	90	NA	NA	NA	NA	0	129	129	113	463.5865950002335	NA	NA	NA	NA	464.11948479991406	464.11948479991406	left	1	1.921123900450766	NA	NA	rsd	001	2026-03-17_13h49.29.176	MR	2023.1.0	60.00765706328852	NA
mr_images/3_a.png	mr_images/3_a_z_135.png	left	cw	135	NA	NA	NA	NA	0	130	130	81	466.069263999816	NA	NA	NA	NA	466.61910809995607	466.61910809995607	left	1	0.6966086002066731	NA	NA	rsd	001	2026-03-17_13h49.29.176	MR	2023.1.0	60.00765706328852	NA
mr_images/4_b.png	mr_images/4_a_z_315.png	right	ccw	45	NA	NA	NA	NA	0	131	131	110	467.335637500044	NA	NA	NA	NA	467.88697759993374	467.88697759993374	left	0	0.8882999001070857	NA	NA	rsd	001	2026-03-17_13h49.29.176	MR	2023.1.0	60.00765706328852	NA
mr_images/1_a.png	mr_images/1_b_z_225.png	right	ccw	135	NA	NA	NA	NA	0	132	132	10	468.8021252001636	NA	NA	NA	NA	469.33534620003775	469.33534620003775	left	0	1.958046400453895	NA	NA	rsd	001	2026-03-17_13h49.29.176	MR	2023.1.0	60.00765706328852	NA
mr_images/7_a.png	mr_images/7_a_z_135.png	left	cw	135	NA	NA	NA	NA	0	133	133	177	471.3185523999855	NA	NA	NA	NA	471.8680770001374	471.8680770001374	left	1	1.969383400399238	NA	NA	rsd	001	2026-03-17_13h49.29.176	MR	2023.1.0	60.00765706328852	NA
mr_images/9_a.png	mr_images/9_a_z_135.png	left	cw	135	NA	NA	NA	NA	0	134	134	201	473.8681195001118	NA	NA	NA	NA	474.4015500000678	474.4015500000678	left	1	1.483926400076598	NA	NA	rsd	001	2026-03-17_13h49.29.176	MR	2023.1.0	60.00765706328852	NA
mr_images/7_b.png	mr_images/7_a_z_45.png	right	cw	45	NA	NA	NA	NA	0	135	135	180	475.9177902000956	NA	NA	NA	NA	476.4348647999577	476.4348647999577	right	1	1.0391473001800478	NA	NA	rsd	001	2026-03-17_13h49.29.176	MR	2023.1.0	60.00765706328852	NA
mr_images/12_b.png	mr_images/12_b_z_45.png	left	cw	45	NA	NA	NA	NA	0	136	136	61	477.5009973999113	NA	NA	NA	NA	478.0342163001187	478.0342163001187	left	1	0.6010681004263461	NA	NA	rsd	001	2026-03-17_13h49.29.176	MR	2023.1.0	60.00765706328852	NA
mr_images/1_a.png	mr_images/1_b_z_45.png	right	cw	45	NA	NA	NA	NA	0	137	137	0	478.6675280998461	NA	NA	NA	NA	479.2176510002464	479.2176510002464	left	0	1.84945880016312	NA	NA	rsd	001	2026-03-17_13h49.29.176	MR	2023.1.0	60.00765706328852	NA
mr_images/5_a.png	mr_images/5_a_z_90.png	left	cw	90	NA	NA	NA	NA	0	138	138	125	481.083739799913	NA	NA	NA	NA	481.6171066998504	481.6171066998504	left	1	1.2403775001876056	NA	NA	rsd	001	2026-03-17_13h49.29.176	MR	2023.1.0	60.00765706328852	NA
mr_images/9_a.png	mr_images/9_b_z_135.png	right	cw	135	NA	NA	NA	NA	0	139	139	200	482.8838860001415	NA	NA	NA	NA	483.4359054001979	483.4359054001979	left	0	1.316209800541401	NA	NA	rsd	001	2026-03-17_13h49.29.176	MR	2023.1.0	60.00765706328852	NA
mr_images/5_a.png	mr_images/5_b_z_90.png	right	cw	90	NA	NA	NA	NA	0	140	140	124	484.7707807002589	NA	NA	NA	NA	485.2997667002492	485.2997667002492	left	0	1.1847310001030564	NA	NA	rsd	001	2026-03-17_13h49.29.176	MR	2023.1.0	60.00765706328852	NA
mr_images/7_b.png	mr_images/7_a_z_225.png	right	ccw	135	NA	NA	NA	NA	0	141	141	190	486.5164088001475	NA	NA	NA	NA	487.0723319002427	487.0723319002427	left	0	1.3248282000422478	NA	NA	rsd	001	2026-03-17_13h49.29.176	MR	2023.1.0	60.00765706328852	NA
mr_images/12_b.png	mr_images/12_b_z_315.png	left	ccw	45	NA	NA	NA	NA	0	142	142	63	488.4203849998303	NA	NA	NA	NA	488.9493081001565	488.9493081001565	left	1	0.8242181004025042	NA	NA	rsd	001	2026-03-17_13h49.29.176	MR	2023.1.0	60.00765706328852	NA
mr_images/5_b.png	mr_images/5_b_z_45.png	left	cw	45	NA	NA	NA	NA	0	143	143	133	489.7992326002568	NA	NA	NA	NA	490.3325060000643	490.3325060000643	left	1	0.4591354001313448	NA	NA	rsd	001	2026-03-17_13h49.29.176	MR	2023.1.0	60.00765706328852	NA
mr_images/4_a.png	mr_images/4_a_z_45.png	left	cw	45	NA	NA	NA	NA	0	144	144	97	490.8161424999126	NA	NA	NA	NA	491.3545675999485	491.3545675999485	left	1	0.9717101999558508	NA	NA	rsd	001	2026-03-17_13h49.29.176	MR	2023.1.0	60.00765706328852	NA
mr_images/11_a.png	mr_images/11_a_z_90.png	left	cw	90	NA	NA	NA	NA	0	145	145	29	492.3531519002281	NA	NA	NA	NA	492.88406870001927	492.88406870001927	right	0	1.6289042001590133	NA	NA	rsd	001	2026-03-17_13h49.29.176	MR	2023.1.0	60.00765706328852	NA
mr_images/11_a.png	mr_images/11_b_z_90.png	right	cw	90	NA	NA	NA	NA	0	146	146	28	494.5362501000054	NA	NA	NA	NA	495.0984037998133	495.0984037998133	right	1	1.136034000199288	NA	NA	rsd	001	2026-03-17_13h49.29.176	MR	2023.1.0	60.00765706328852	NA
mr_images/7_b.png	mr_images/7_a_z_135.png	right	cw	135	NA	NA	NA	NA	0	147	147	188	496.2650162000209	NA	NA	NA	NA	496.7986373002641	496.7986373002641	left	0	1.7007225002162158	NA	NA	rsd	001	2026-03-17_13h49.29.176	MR	2023.1.0	60.00765706328852	NA
mr_images/1_b.png	mr_images/1_a_z_270.png	right	ccw	90	NA	NA	NA	NA	0	148	148	18	498.53141270019114	NA	NA	NA	NA	499.06465259986	499.06465259986	left	0	1.6709875003434718	NA	NA	rsd	001	2026-03-17_13h49.29.176	MR	2023.1.0	60.00765706328852	NA
mr_images/1_b.png	mr_images/1_a_z_90.png	right	cw	90	NA	NA	NA	NA	0	149	149	16	500.76446120021865	NA	NA	NA	NA	501.33114090003073	501.33114090003073	right	1	1.6807202002964914	NA	NA	rsd	001	2026-03-17_13h49.29.176	MR	2023.1.0	60.00765706328852	NA
mr_images/12_b.png	mr_images/12_b_z_270.png	left	ccw	90	NA	NA	NA	NA	0	150	150	67	503.0306973000989	NA	NA	NA	NA	503.56399729987606	503.56399729987606	left	1	1.006341699976474	NA	NA	rsd	001	2026-03-17_13h49.29.176	MR	2023.1.0	60.00765706328852	NA
mr_images/4_b.png	mr_images/4_a_z_135.png	right	cw	135	NA	NA	NA	NA	0	151	151	116	504.5972219998948	NA	NA	NA	NA	505.1303473999724	505.1303473999724	left	0	1.7817161004059017	NA	NA	rsd	001	2026-03-17_13h49.29.176	MR	2023.1.0	60.00765706328852	NA
mr_images/12_a.png	mr_images/12_b_z_135.png	right	cw	135	NA	NA	NA	NA	0	152	152	56	506.9301725998521	NA	NA	NA	NA	507.4636340001598	507.4636340001598	left	0	1.0886252000927925	NA	NA	rsd	001	2026-03-17_13h49.29.176	MR	2023.1.0	60.00765706328852	NA
mr_images/7_a.png	mr_images/7_b_z_270.png	right	ccw	90	NA	NA	NA	NA	0	153	153	174	508.580043700058	NA	NA	NA	NA	509.11314939986914	509.11314939986914	right	1	2.057677899952978	NA	NA	rsd	001	2026-03-17_13h49.29.176	MR	2023.1.0	60.00765706328852	NA
mr_images/6_b.png	mr_images/6_b_z_315.png	left	ccw	45	NA	NA	NA	NA	0	154	154	159	511.1963237002492	NA	NA	NA	NA	511.7295765001327	511.7295765001327	left	1	1.0615316000767052	NA	NA	rsd	001	2026-03-17_13h49.29.176	MR	2023.1.0	60.00765706328852	NA
mr_images/4_a.png	mr_images/4_a_z_225.png	left	ccw	135	NA	NA	NA	NA	0	155	155	107	512.812797700055	NA	NA	NA	NA	513.3459920999594	513.3459920999594	right	0	1.9772279001772404	NA	NA	rsd	001	2026-03-17_13h49.29.176	MR	2023.1.0	60.00765706328852	NA
mr_images/7_a.png	mr_images/7_a_z_225.png	left	ccw	135	NA	NA	NA	NA	0	156	156	179	515.3457231000066	NA	NA	NA	NA	515.8788799000904	515.8788799000904	left	1	1.2276568999513984	NA	NA	rsd	001	2026-03-17_13h49.29.176	MR	2023.1.0	60.00765706328852	NA
mr_images/7_a.png	mr_images/7_b_z_45.png	right	cw	45	NA	NA	NA	NA	0	157	157	168	517.128750000149	NA	NA	NA	NA	517.6621520002373	517.6621520002373	right	1	1.8135985997505488	NA	NA	rsd	001	2026-03-17_13h49.29.176	MR	2023.1.0	60.00765706328852	NA
mr_images/11_a.png	mr_images/11_b_z_270.png	right	ccw	90	NA	NA	NA	NA	0	158	158	30	519.4952739998698	NA	NA	NA	NA	520.0284186000936	520.0284186000936	left	0	2.68074950017035	NA	NA	rsd	001	2026-03-17_13h49.29.176	MR	2023.1.0	60.00765706328852	NA
mr_images/9_a.png	mr_images/9_b_z_315.png	right	ccw	45	NA	NA	NA	NA	0	159	159	194	522.7280530999415	NA	NA	NA	NA	523.2612868999131	523.2612868999131	left	0	1.6237407000735402	NA	NA	rsd	001	2026-03-17_13h49.29.176	MR	2023.1.0	60.00765706328852	NA
mr_images/3_a.png	mr_images/3_b_z_135.png	right	cw	135	NA	NA	NA	NA	0	160	160	80	524.9110363000073	NA	NA	NA	NA	525.4777857000008	525.4777857000008	left	0	1.5539217004552484	NA	NA	rsd	001	2026-03-17_13h49.29.176	MR	2023.1.0	60.00765706328852	NA
mr_images/9_b.png	mr_images/9_b_z_225.png	left	ccw	135	NA	NA	NA	NA	0	161	161	215	527.0607366999611	NA	NA	NA	NA	NA	527.593904600013	left	1	2.0840286002494395	NA	NA	rsd	001	2026-03-17_13h49.29.176	MR	2023.1.0	60.00765706328852	NA
mr_images/9_b.png	mr_images/9_b_z_135.png	left	cw	135	NA	NA	NA	NA	0	162	162	213	529.7103721001185	NA	NA	NA	NA	530.2436215998605	530.2436215998605	left	1	2.3224940998479724	NA	NA	rsd	001	2026-03-17_13h49.29.176	MR	2023.1.0	60.00765706328852	NA
mr_images/3_a.png	mr_images/3_a_z_90.png	left	cw	90	NA	NA	NA	NA	0	163	163	77	532.593362600077	NA	NA	NA	NA	533.160229400266	533.160229400266	right	0	3.0420511001721025	NA	NA	rsd	001	2026-03-17_13h49.29.176	MR	2023.1.0	60.00765706328852	NA
mr_images/5_a.png	mr_images/5_a_z_135.png	left	cw	135	NA	NA	NA	NA	0	164	164	129	536.2261864999309	NA	NA	NA	NA	536.7595794000663	536.7595794000663	left	1	1.3189047002233565	NA	NA	rsd	001	2026-03-17_13h49.29.176	MR	2023.1.0	60.00765706328852	NA
mr_images/6_b.png	mr_images/6_a_z_315.png	right	ccw	45	NA	NA	NA	NA	0	165	165	158	538.1092051002197	NA	NA	NA	NA	538.6423654998653	538.6423654998653	right	1	1.4071713001467288	NA	NA	rsd	001	2026-03-17_13h49.29.176	MR	2023.1.0	60.00765706328852	NA
mr_images/3_b.png	mr_images/3_b_z_315.png	left	ccw	45	NA	NA	NA	NA	0	166	166	87	540.0756279001944	NA	NA	NA	NA	540.60880669998	540.60880669998	left	1	1.2463541002944112	NA	NA	rsd	001	2026-03-17_13h49.29.176	MR	2023.1.0	60.00765706328852	NA
mr_images/7_a.png	mr_images/7_b_z_90.png	right	cw	90	NA	NA	NA	NA	0	167	167	172	541.8753629000857	NA	NA	NA	NA	542.4251568000764	542.4251568000764	left	0	1.1706528002396226	NA	NA	rsd	001	2026-03-17_13h49.29.176	MR	2023.1.0	60.00765706328852	NA
mr_images/1_a.png	mr_images/1_a_z_45.png	left	cw	45	NA	NA	NA	NA	0	168	168	1	543.6251266002655	NA	NA	NA	NA	544.1439741998911	544.1439741998911	left	1	3.1589053999632597	NA	NA	rsd	001	2026-03-17_13h49.29.176	MR	2023.1.0	60.00765706328852	NA
mr_images/4_b.png	mr_images/4_b_z_270.png	left	ccw	90	NA	NA	NA	NA	0	169	169	115	547.3288309001364	NA	NA	NA	NA	547.8577741999179	547.8577741999179	left	1	1.5341501999646423	NA	NA	rsd	001	2026-03-17_13h49.29.176	MR	2023.1.0	60.00765706328852	NA
mr_images/12_a.png	mr_images/12_a_z_45.png	left	cw	45	NA	NA	NA	NA	0	170	170	49	549.4243339002132	NA	NA	NA	NA	549.9575649998151	549.9575649998151	left	1	1.2065674001351	NA	NA	rsd	001	2026-03-17_13h49.29.176	MR	2023.1.0	60.00765706328852	NA
mr_images/1_a.png	mr_images/1_a_z_90.png	left	cw	90	NA	NA	NA	NA	0	171	171	5	551.1907648998313	NA	NA	NA	NA	551.7238694000989	551.7238694000989	left	1	2.1294868998229504	NA	NA	rsd	001	2026-03-17_13h49.29.176	MR	2023.1.0	60.00765706328852	NA
mr_images/6_a.png	mr_images/6_b_z_135.png	right	cw	135	NA	NA	NA	NA	0	172	172	152	553.877826299984	NA	NA	NA	NA	554.4077897001989	554.4077897001989	left	0	1.7207239004783332	NA	NA	rsd	001	2026-03-17_13h49.29.176	MR	2023.1.0	60.00765706328852	NA
mr_images/12_a.png	mr_images/12_a_z_225.png	left	ccw	135	NA	NA	NA	NA	0	173	173	59	556.1574861002155	NA	NA	NA	NA	556.6918195998296	556.6918195998296	left	1	0.7792823002673686	NA	NA	rsd	001	2026-03-17_13h49.29.176	MR	2023.1.0	60.00765706328852	NA
mr_images/3_b.png	mr_images/3_b_z_45.png	left	cw	45	NA	NA	NA	NA	0	174	174	85	557.4941175002605	NA	NA	NA	NA	558.0254871002398	558.0254871002398	right	0	2.7541800001636147	NA	NA	rsd	001	2026-03-17_13h49.29.176	MR	2023.1.0	60.00765706328852	NA
mr_images/7_b.png	mr_images/7_b_z_135.png	left	cw	135	NA	NA	NA	NA	0	175	175	189	560.8102887999266	NA	NA	NA	NA	561.3726558000781	561.3726558000781	left	1	1.57828010013327	NA	NA	rsd	001	2026-03-17_13h49.29.176	MR	2023.1.0	60.00765706328852	NA
mr_images/3_b.png	mr_images/3_a_z_270.png	right	ccw	90	NA	NA	NA	NA	0	176	176	90	562.9724548002705	NA	NA	NA	NA	563.5056735998951	563.5056735998951	left	0	1.779933599755168	NA	NA	rsd	001	2026-03-17_13h49.29.176	MR	2023.1.0	60.00765706328852	NA
mr_images/5_b.png	mr_images/5_a_z_315.png	right	ccw	45	NA	NA	NA	NA	0	177	177	134	565.3053529998288	NA	NA	NA	NA	565.8722367002629	565.8722367002629	left	0	1.0339512997306883	NA	NA	rsd	001	2026-03-17_13h49.29.176	MR	2023.1.0	60.00765706328852	NA
mr_images/1_b.png	mr_images/1_b_z_45.png	left	cw	45	NA	NA	NA	NA	0	178	178	13	566.9386211000383	NA	NA	NA	NA	567.4717529001646	567.4717529001646	right	0	2.0660126004368067	NA	NA	rsd	001	2026-03-17_13h49.29.176	MR	2023.1.0	60.00765706328852	NA
mr_images/4_a.png	mr_images/4_a_z_90.png	left	cw	90	NA	NA	NA	NA	0	179	179	101	569.5548562002368	NA	NA	NA	NA	570.0879819998518	570.0879819998518	left	1	2.518436700105667	NA	NA	rsd	001	2026-03-17_13h49.29.176	MR	2023.1.0	60.00765706328852	NA
mr_images/11_a.png	mr_images/11_a_z_45.png	left	cw	45	NA	NA	NA	NA	0	180	180	25	572.6376713998616	NA	NA	NA	NA	573.1709771999158	573.1709771999158	left	1	2.111634200438857	NA	NA	rsd	001	2026-03-17_13h49.29.176	MR	2023.1.0	60.00765706328852	NA
mr_images/3_a.png	mr_images/3_b_z_315.png	right	ccw	45	NA	NA	NA	NA	0	181	181	74	575.3041809001006	NA	NA	NA	NA	575.8373221000656	575.8373221000656	left	0	1.159759699832648	NA	NA	rsd	001	2026-03-17_13h49.29.176	MR	2023.1.0	60.00765706328852	NA
mr_images/7_b.png	mr_images/7_a_z_270.png	right	ccw	90	NA	NA	NA	NA	0	182	182	186	577.0205251998268	NA	NA	NA	NA	577.5871068001725	577.5871068001725	left	0	0.7044279002584517	NA	NA	rsd	001	2026-03-17_13h49.29.176	MR	2023.1.0	60.00765706328852	NA
mr_images/6_a.png	mr_images/6_b_z_270.png	right	ccw	90	NA	NA	NA	NA	0	183	183	150	578.3201733999886	NA	NA	NA	NA	578.8535488001071	578.8535488001071	left	0	1.4583385004661975	NA	NA	rsd	001	2026-03-17_13h49.29.176	MR	2023.1.0	60.00765706328852	NA
mr_images/9_b.png	mr_images/9_b_z_270.png	left	ccw	90	NA	NA	NA	NA	0	184	184	211	580.3367094001733	NA	NA	NA	NA	580.8699301998131	580.8699301998131	left	1	2.575496000237763	NA	NA	rsd	001	2026-03-17_13h49.29.176	MR	2023.1.0	60.00765706328852	NA
mr_images/7_b.png	mr_images/7_a_z_90.png	right	cw	90	NA	NA	NA	NA	0	185	185	184	583.4696086999029	NA	NA	NA	NA	584.0232327999547	584.0232327999547	right	1	2.690244600176811	NA	NA	rsd	001	2026-03-17_13h49.29.176	MR	2023.1.0	60.00765706328852	NA
mr_images/4_a.png	mr_images/4_b_z_315.png	right	ccw	45	NA	NA	NA	NA	0	186	186	98	586.7399289002642	NA	NA	NA	NA	587.269000899978	587.269000899978	left	0	0.9116092002950608	NA	NA	rsd	001	2026-03-17_13h49.29.176	MR	2023.1.0	60.00765706328852	NA
mr_images/3_b.png	mr_images/3_a_z_315.png	right	ccw	45	NA	NA	NA	NA	0	187	187	86	588.2023209999315	NA	NA	NA	NA	588.7690351000056	588.7690351000056	left	0	0.7257070997729897	NA	NA	rsd	001	2026-03-17_13h49.29.176	MR	2023.1.0	60.00765706328852	NA
mr_images/1_b.png	mr_images/1_a_z_135.png	right	cw	135	NA	NA	NA	NA	0	188	188	20	589.518751999829	NA	NA	NA	NA	590.0517279999331	590.0517279999331	left	0	2.327324300073087	NA	NA	rsd	001	2026-03-17_13h49.29.176	MR	2023.1.0	60.00765706328852	NA
mr_images/3_a.png	mr_images/3_a_z_315.png	left	ccw	45	NA	NA	NA	NA	0	189	189	75	592.40171799995	NA	NA	NA	NA	592.9349170001224	592.9349170001224	right	0	2.1273799003101885	NA	NA	rsd	001	2026-03-17_13h49.29.176	MR	2023.1.0	60.00765706328852	NA
mr_images/6_a.png	mr_images/6_a_z_45.png	left	cw	45	NA	NA	NA	NA	0	190	190	145	595.0846146000549	NA	NA	NA	NA	595.6346378000453	595.6346378000453	left	1	1.3057576003484428	NA	NA	rsd	001	2026-03-17_13h49.29.176	MR	2023.1.0	60.00765706328852	NA
mr_images/6_b.png	mr_images/6_b_z_90.png	left	cw	90	NA	NA	NA	NA	0	191	191	161	596.9677018001676	NA	NA	NA	NA	597.5009738998488	597.5009738998488	left	1	0.7668256000615656	NA	NA	rsd	001	2026-03-17_13h49.29.176	MR	2023.1.0	60.00765706328852	NA
mr_images/3_b.png	mr_images/3_b_z_270.png	left	ccw	90	NA	NA	NA	NA	0	192	192	91	598.2842174000107	NA	NA	NA	NA	598.8174240002409	598.8174240002409	right	0	1.849286500364542	NA	NA	rsd	001	2026-03-17_13h49.29.176	MR	2023.1.0	60.00765706328852	NA
mr_images/11_b.png	mr_images/11_b_z_90.png	left	cw	90	NA	NA	NA	NA	0	193	193	41	600.6838666000403	NA	NA	NA	NA	601.2172782002017	601.2172782002017	left	1	2.6793340002186596	NA	NA	rsd	001	2026-03-17_13h49.29.176	MR	2023.1.0	60.00765706328852	NA
mr_images/1_a.png	mr_images/1_a_z_315.png	left	ccw	45	NA	NA	NA	NA	0	194	194	3	603.9172181999311	NA	NA	NA	NA	604.4687534999102	604.4687534999102	right	0	3.5907900002785027	NA	NA	rsd	001	2026-03-17_13h49.29.176	MR	2023.1.0	60.00765706328852	NA
mr_images/7_a.png	mr_images/7_a_z_90.png	left	cw	90	NA	NA	NA	NA	0	195	195	173	608.087045900058	NA	NA	NA	NA	608.6158552002162	608.6158552002162	right	0	3.5689901998266578	NA	NA	rsd	001	2026-03-17_13h49.29.176	MR	2023.1.0	60.00765706328852	NA
mr_images/6_b.png	mr_images/6_a_z_45.png	right	cw	45	NA	NA	NA	NA	0	196	196	156	612.2156282998621	NA	NA	NA	NA	612.7488032998517	612.7488032998517	left	0	1.687346199993044	NA	NA	rsd	001	2026-03-17_13h49.29.176	MR	2023.1.0	60.00765706328852	NA
mr_images/4_a.png	mr_images/4_a_z_315.png	left	ccw	45	NA	NA	NA	NA	0	197	197	99	614.4656823999248	NA	NA	NA	NA	614.9984030998312	614.9984030998312	right	0	2.1430365997366607	NA	NA	rsd	001	2026-03-17_13h49.29.176	MR	2023.1.0	60.00765706328852	NA
mr_images/5_a.png	mr_images/5_b_z_315.png	right	ccw	45	NA	NA	NA	NA	0	198	198	122	617.1649962002411	NA	NA	NA	NA	617.7346898000687	617.7346898000687	left	0	0.8977296003140509	NA	NA	rsd	001	2026-03-17_13h49.29.176	MR	2023.1.0	60.00765706328852	NA
mr_images/9_b.png	mr_images/9_a_z_315.png	right	ccw	45	NA	NA	NA	NA	0	199	199	206	618.6521943998523	NA	NA	NA	NA	619.1814239001833	619.1814239001833	left	0	0.7081677000969648	NA	NA	rsd	001	2026-03-17_13h49.29.176	MR	2023.1.0	60.00765706328852	NA
mr_images/7_a.png	mr_images/7_b_z_225.png	right	ccw	135	NA	NA	NA	NA	0	200	200	178	619.9149663001299	NA	NA	NA	NA	620.4477647999302	620.4477647999302	left	0	2.037432400044054	NA	NA	rsd	001	2026-03-17_13h49.29.176	MR	2023.1.0	60.00765706328852	NA
mr_images/7_a.png	mr_images/7_b_z_135.png	right	cw	135	NA	NA	NA	NA	0	201	201	176	622.5141418999992	NA	NA	NA	NA	623.0353041999042	623.0353041999042	left	0	1.180737300310284	NA	NA	rsd	001	2026-03-17_13h49.29.176	MR	2023.1.0	60.00765706328852	NA
mr_images/5_a.png	mr_images/5_a_z_315.png	left	ccw	45	NA	NA	NA	NA	0	202	202	123	624.2347317002714	NA	NA	NA	NA	624.7639752998948	624.7639752998948	left	1	2.8764603999443352	NA	NA	rsd	001	2026-03-17_13h49.29.176	MR	2023.1.0	60.00765706328852	NA
mr_images/3_b.png	mr_images/3_a_z_45.png	right	cw	45	NA	NA	NA	NA	0	203	203	84	627.6638596998528	NA	NA	NA	NA	628.2299394002184	628.2299394002184	left	0	2.4849840998649597	NA	NA	rsd	001	2026-03-17_13h49.29.176	MR	2023.1.0	60.00765706328852	NA
mr_images/11_a.png	mr_images/11_a_z_135.png	left	cw	135	NA	NA	NA	NA	0	204	204	33	630.7463051001541	NA	NA	NA	NA	631.2798762000166	631.2798762000166	left	1	2.951928799971938	NA	NA	rsd	001	2026-03-17_13h49.29.176	MR	2023.1.0	60.00765706328852	NA
mr_images/9_a.png	mr_images/9_b_z_90.png	right	cw	90	NA	NA	NA	NA	0	205	205	196	634.2625215998851	NA	NA	NA	NA	634.7958049001172	634.7958049001172	left	0	3.8526208004914224	NA	NA	rsd	001	2026-03-17_13h49.29.176	MR	2023.1.0	60.00765706328852	NA
mr_images/11_a.png	mr_images/11_b_z_45.png	right	cw	45	NA	NA	NA	NA	0	206	206	24	638.6787228002213	NA	NA	NA	NA	639.2118810000829	639.2118810000829	left	0	2.506513800472021	NA	NA	rsd	001	2026-03-17_13h49.29.176	MR	2023.1.0	60.00765706328852	NA
mr_images/7_b.png	mr_images/7_b_z_90.png	left	cw	90	NA	NA	NA	NA	0	207	207	185	641.7447907002643	NA	NA	NA	NA	642.2780559002422	642.2780559002422	right	0	1.5046594003215432	NA	NA	rsd	001	2026-03-17_13h49.29.176	MR	2023.1.0	60.00765706328852	NA
mr_images/3_b.png	mr_images/3_b_z_135.png	left	cw	135	NA	NA	NA	NA	0	208	208	93	643.8112437999807	NA	NA	NA	NA	644.3445565002039	644.3445565002039	left	1	1.69874760042876	NA	NA	rsd	001	2026-03-17_13h49.29.176	MR	2023.1.0	60.00765706328852	NA
mr_images/7_a.png	mr_images/7_a_z_270.png	left	ccw	90	NA	NA	NA	NA	0	209	209	175	646.0610193000175	NA	NA	NA	NA	646.599766400177	646.599766400177	right	0	2.5564218000508845	NA	NA	rsd	001	2026-03-17_13h49.29.176	MR	2023.1.0	60.00765706328852	NA
mr_images/9_a.png	mr_images/9_a_z_90.png	left	cw	90	NA	NA	NA	NA	0	210	210	197	649.1816173000261	NA	NA	NA	NA	649.7161000999622	649.7161000999622	left	1	2.338373300153762	NA	NA	rsd	001	2026-03-17_13h49.29.176	MR	2023.1.0	60.00765706328852	NA
mr_images/3_a.png	mr_images/3_a_z_45.png	left	cw	45	NA	NA	NA	NA	0	211	211	73	652.0809388002381	NA	NA	NA	NA	652.6098850998096	652.6098850998096	right	0	2.4725477998144925	NA	NA	rsd	001	2026-03-17_13h49.29.176	MR	2023.1.0	60.00765706328852	NA
mr_images/3_b.png	mr_images/3_a_z_90.png	right	cw	90	NA	NA	NA	NA	0	212	212	88	655.1096108998172	NA	NA	NA	NA	655.6428606999107	655.6428606999107	right	1	2.167078100144863	NA	NA	rsd	001	2026-03-17_13h49.29.176	MR	2023.1.0	60.00765706328852	NA
mr_images/3_a.png	mr_images/3_b_z_225.png	right	ccw	135	NA	NA	NA	NA	0	213	213	82	657.8258760999888	NA	NA	NA	NA	658.3591569000855	658.3591569000855	left	0	1.9700922998599708	NA	NA	rsd	001	2026-03-17_13h49.29.176	MR	2023.1.0	60.00765706328852	NA
mr_images/1_b.png	mr_images/1_a_z_315.png	right	ccw	45	NA	NA	NA	NA	0	214	214	14	660.3589033000171	NA	NA	NA	NA	660.8921652999707	660.8921652999707	left	0	0.9972230000421404	NA	NA	rsd	001	2026-03-17_13h49.29.176	MR	2023.1.0	60.00765706328852	NA
mr_images/5_b.png	mr_images/5_b_z_315.png	left	ccw	45	NA	NA	NA	NA	0	215	215	135	661.9087712001055	NA	NA	NA	NA	662.441958699841	662.441958699841	right	0	4.273600300308317	NA	NA	rsd	001	2026-03-17_13h49.29.176	MR	2023.1.0	60.00765706328852	NA
NA	NA	NA	NA	NA	NA	NA	NA	NA	NA	NA	NA	NA	NA	NA	NA	NA	NA	NA	NA	NA	NA	NA	666.7413808000274	668.7411309001036	NA	NA	NA	NA	NA	NA	NA
