imagefile	stimfile	corrAns	MRdir	angle	training.thisRepN	training.thisTrialN	training.thisN	training.thisIndex	mentalrot_trials.thisRepN	mentalrot_trials.thisTrialN	mentalrot_trials.thisN	mentalrot_trials.thisIndex	blank.started	mr_answ_2.started	mr_answ_2.keys	mr_answ_2.corr	mr_answ_2.rt	blank.stopped	mr_answ.started	mr_answ.keys	mr_answ.corr	mr_answ.rt	byebye_text.started	byebye_text.stopped	participant	session	date	expName	psychopyVersion	frameRate	0
mr_images/1_a.png	mr_images/1_a_z_270.png	left	ccw	90	0	0	0	7	NA	NA	NA	NA	82.05425120005384	82.60371970012784	None	0	NA	NA	NA	NA	NA	NA	NA	NA	aae	1	2026-06-01_20h05.20.165	MR	2023.1.0	59.99876408589627	0
mr_images/3_b.png	mr_images/3_a_z_135.png	right	cw	135	0	1	1	92	NA	NA	NA	NA	87.50533290021122	88.06965450011194	right	1	2.0945387999527156	NA	NA	NA	NA	NA	NA	NA	aae	1	2026-06-01_20h05.20.165	MR	2023.1.0	59.99876408589627	0
mr_images/6_b.png	mr_images/6_a_z_90.png	right	cw	90	0	2	2	160	NA	NA	NA	NA	90.1859897999093	90.76928569981828	right	1	2.8107845997437835	90.76928569981828	NA	NA	NA	NA	NA	NA	aae	1	2026-06-01_20h05.20.165	MR	2023.1.0	59.99876408589627	0
mr_images/3_a.png	mr_images/3_b_z_225.png	right	ccw	135	0	3	3	82	NA	NA	NA	NA	93.60229460010304	94.18600470013916	left	0	2.3167232000268996	94.18600470013916	NA	NA	NA	NA	NA	NA	aae	1	2026-06-01_20h05.20.165	MR	2023.1.0	59.99876408589627	0
mr_images/7_b.png	mr_images/7_b_z_225.png	left	ccw	135	0	4	4	191	NA	NA	NA	NA	96.53519249986856	97.11849260004236	left	1	2.071525199804455	97.11849260004236	NA	NA	NA	NA	NA	NA	aae	1	2026-06-01_20h05.20.165	MR	2023.1.0	59.99876408589627	0
mr_images/9_b.png	mr_images/9_b_z_315.png	left	ccw	45	NA	NA	NA	NA	0	65	65	207	475.9659510999918	NA	NA	NA	NA	476.4990632999688	476.4990632999688	right	0	3,71475049768924	NA	NA	aae	1	2026-06-01_20h05.20.165	MR	2023.1.0	59.99876408589627	0,232806838466786
mr_images/11_b.png	mr_images/11_a_z_135.png	right	cw	135	NA	NA	NA	NA	0	99	99	44	270.0279141999781	NA	NA	NA	NA	270.59431090019643	270.59431090019643	left	1	3,33489027878386	NA	NA	aae	1	2026-06-01_20h05.20.165	MR	2023.1.0	59.99876408589627	0,566273664007895
mr_images/12_b.png	mr_images/12_a_z_270.png	right	ccw	90	NA	NA	NA	NA	0	30	30	66	843.5814462997951	NA	NA	NA	NA	844.1158519000746	844.1158519000746	left	1	2,04914954825653	NA	NA	aae	1	2026-06-01_20h05.20.165	MR	2023.1.0	59.99876408589627	0,325208823545836
mr_images/7_a.png	mr_images/7_a_z_315.png	left	ccw	45	NA	NA	NA	NA	0	51	51	171	747.01593639981	NA	NA	NA	NA	747.5659177000634	747.5659177000634	right	1	3,06040746186045	NA	NA	aae	1	2026-06-01_20h05.20.165	MR	2023.1.0	59.99876408589627	0,2294952532975
mr_images/6_a.png	mr_images/6_b_z_225.png	right	ccw	135	NA	NA	NA	NA	0	149	149	154	441.7914553000592	NA	NA	NA	NA	442.3538118000142	442.3538118000142	left	0	2,41912275986397	NA	NA	aae	1	2026-06-01_20h05.20.165	MR	2023.1.0	59.99876408589627	0,610374886891805
mr_images/5_b.png	mr_images/5_a_z_315.png	right	ccw	45	NA	NA	NA	NA	0	42	42	134	150.4609790001996	NA	NA	NA	NA	151.02754819998518	151.02754819998518	left	1	2,89309468123247	NA	NA	aae	1	2026-06-01_20h05.20.165	MR	2023.1.0	59.99876408589627	0,630133114638738
mr_images/4_a.png	mr_images/4_b_z_315.png	right	ccw	45	NA	NA	NA	NA	0	184	184	98	316.3047889000736	NA	NA	NA	NA	316.8379919999279	316.8379919999279	left	0	1,5978385740018	NA	NA	aae	1	2026-06-01_20h05.20.165	MR	2023.1.0	59.99876408589627	0,216139362775721
mr_images/6_b.png	mr_images/6_b_z_45.png	left	cw	45	NA	NA	NA	NA	0	53	53	157	161.50947829987854	NA	NA	NA	NA	162.05937109980732	162.05937109980732	None	1	0,064578741992591	NA	NA	aae	1	2026-06-01_20h05.20.165	MR	2023.1.0	59.99876408589627	0,121706118457951
mr_images/4_b.png	mr_images/4_b_z_315.png	left	ccw	45	NA	NA	NA	NA	0	167	167	111	209.4695581998676	NA	NA	NA	NA	210.0528167001903	210.0528167001903	right	1	3,16394546293305	NA	NA	aae	1	2026-06-01_20h05.20.165	MR	2023.1.0	59.99876408589627	0,999741849140264
mr_images/6_b.png	mr_images/6_a_z_45.png	right	cw	45	NA	NA	NA	NA	0	105	105	156	460.667961999774	NA	NA	NA	NA	461.20119989989325	461.20119989989325	left	0	2,56952649707092	NA	NA	aae	1	2026-06-01_20h05.20.165	MR	2023.1.0	59.99876408589627	0,454868385451846
mr_images/5_b.png	mr_images/5_b_z_315.png	left	ccw	45	NA	NA	NA	NA	0	61	61	135	217.5184758999385	NA	NA	NA	NA	218.0849760998972	218.0849760998972	right	1	4,77362693366013	NA	NA	aae	1	2026-06-01_20h05.20.165	MR	2023.1.0	59.99876408589627	0,538805631338619
mr_images/9_b.png	mr_images/9_b_z_45.png	left	cw	45	NA	NA	NA	NA	0	71	71	205	203.7369539001957	NA	NA	NA	NA	204.3035865998827	204.3035865998827	right	1	4,00203236503876	NA	NA	aae	1	2026-06-01_20h05.20.165	MR	2023.1.0	59.99876408589627	0,460779784596525
mr_images/5_a.png	mr_images/5_a_z_315.png	left	ccw	45	NA	NA	NA	NA	0	152	152	123	772.0747588998638	NA	NA	NA	NA	772.6107394997962	772.6107394997962	right	0	3,30842022583237	NA	NA	aae	1	2026-06-01_20h05.20.165	MR	2023.1.0	59.99876408589627	0,999833060312085
mr_images/12_a.png	mr_images/12_a_z_45.png	left	cw	45	NA	NA	NA	NA	0	165	165	49	525.62557129981	NA	NA	NA	NA	526.1588115999475	526.1588115999475	right	1	4,15244201003225	NA	NA	aae	1	2026-06-01_20h05.20.165	MR	2023.1.0	59.99876408589627	0,285475175711326
mr_images/1_b.png	mr_images/1_b_z_135.png	left	cw	135	NA	NA	NA	NA	0	21	21	21	176.074130800087	NA	NA	NA	NA	176.64077679999173	176.64077679999173	left	1	0,0923832804255651	NA	NA	aae	1	2026-06-01_20h05.20.165	MR	2023.1.0	59.99876408589627	0,473173440084793
mr_images/11_a.png	mr_images/11_b_z_315.png	right	ccw	45	NA	NA	NA	NA	0	46	46	26	708.0170848998241	NA	NA	NA	NA	708.5721558001824	708.5721558001824	left	0	3,16175015157205	NA	NA	aae	1	2026-06-01_20h05.20.165	MR	2023.1.0	59.99876408589627	0,272351211751811
mr_images/11_a.png	mr_images/11_b_z_90.png	right	cw	90	NA	NA	NA	NA	0	27	27	28	660.4901854000054	NA	NA	NA	NA	661.0234091999009	661.0234091999009	left	1	3,02513619113597	NA	NA	aae	1	2026-06-01_20h05.20.165	MR	2023.1.0	59.99876408589627	0,274353300803341
mr_images/5_a.png	mr_images/5_b_z_315.png	right	ccw	45	NA	NA	NA	NA	0	54	54	122	832.9329071999528	NA	NA	NA	NA	833.4662095000967	833.4662095000967	left	0	3,41866537861643	NA	NA	aae	1	2026-06-01_20h05.20.165	MR	2023.1.0	59.99876408589627	0,0682705183280632
mr_images/12_a.png	mr_images/12_b_z_225.png	right	ccw	135	NA	NA	NA	NA	0	195	195	58	103.9676378997974	NA	NA	NA	NA	104.55077880015595	104.55077880015595	left	0	3,10922427175683	NA	NA	aae	1	2026-06-01_20h05.20.165	MR	2023.1.0	59.99876408589627	0,680443984339945
mr_images/6_a.png	mr_images/6_a_z_315.png	left	ccw	45	NA	NA	NA	NA	0	1	1	147	199.870756899938	NA	NA	NA	NA	200.4374867998995	200.4374867998995	right	1	3,2641956784355	NA	NA	aae	1	2026-06-01_20h05.20.165	MR	2023.1.0	59.99876408589627	0,522360148956068
mr_images/3_b.png	mr_images/3_a_z_135.png	right	cw	135	NA	NA	NA	NA	0	70	70	92	632.415036899969	NA	NA	NA	NA	632.9439761000685	632.9439761000685	left	1	2,3992954264686	NA	NA	aae	1	2026-06-01_20h05.20.165	MR	2023.1.0	59.99876408589627	0,17889190337155
mr_images/12_b.png	mr_images/12_b_z_225.png	left	ccw	135	NA	NA	NA	NA	0	87	87	71	300.773475300055	NA	NA	NA	NA	301.3112924997695	301.3112924997695	right	1	3,64281011119602	NA	NA	aae	1	2026-06-01_20h05.20.165	MR	2023.1.0	59.99876408589627	0,044547479483299
mr_images/5_a.png	mr_images/5_b_z_225.png	right	ccw	135	NA	NA	NA	NA	0	127	127	130	294.64104419993237	NA	NA	NA	NA	295.174302500207	295.174302500207	left	0	2,74729632612435	NA	NA	aae	1	2026-06-01_20h05.20.165	MR	2023.1.0	59.99876408589627	0,190958162187599
mr_images/1_a.png	mr_images/1_a_z_45.png	left	cw	45	NA	NA	NA	NA	0	197	197	1	775.8784567001276	NA	NA	NA	NA	776.4074232000858	776.4074232000858	right	0	3,55907966251835	NA	NA	aae	1	2026-06-01_20h05.20.165	MR	2023.1.0	59.99876408589627	0,657789419987239
mr_images/5_a.png	mr_images/5_b_z_90.png	right	cw	90	NA	NA	NA	NA	0	163	163	124	189.0766555997543	NA	NA	NA	NA	189.65738639980555	189.65738639980555	left	0	3,75108583815745	NA	NA	aae	1	2026-06-01_20h05.20.165	MR	2023.1.0	59.99876408589627	0,223146369797178
mr_images/1_a.png	mr_images/1_a_z_225.png	left	ccw	135	NA	NA	NA	NA	0	201	201	11	600.9650908000767	NA	NA	NA	NA	601.498427500017	601.498427500017	right	1	3,95668570950511	NA	NA	aae	1	2026-06-01_20h05.20.165	MR	2023.1.0	59.99876408589627	0,266957783023827
mr_images/6_b.png	mr_images/6_a_z_315.png	right	ccw	45	NA	NA	NA	NA	0	12	12	158	827.1003747000359	NA	NA	NA	NA	827.6335857999511	827.6335857999511	left	0	2,23894877461135	NA	NA	aae	1	2026-06-01_20h05.20.165	MR	2023.1.0	59.99876408589627	0,495189463137649
mr_images/5_b.png	mr_images/5_a_z_45.png	right	cw	45	NA	NA	NA	NA	0	180	180	132	619.4625205001794	NA	NA	NA	NA	NA	619.9969832999632	right	1	2,30787044987664	NA	NA	aae	1	2026-06-01_20h05.20.165	MR	2023.1.0	59.99876408589627	0,807565044728108
mr_images/3_a.png	mr_images/3_a_z_135.png	left	cw	135	NA	NA	NA	NA	0	94	94	81	565.3868085001595	NA	NA	NA	NA	565.9265688001178	565.9265688001178	right	0	3,74032169926795	NA	NA	aae	1	2026-06-01_20h05.20.165	MR	2023.1.0	59.99876408589627	0,326418248121627
mr_images/5_a.png	mr_images/5_b_z_45.png	right	cw	45	NA	NA	NA	NA	0	159	159	120	389.0113408998586	NA	NA	NA	NA	389.5670619001612	389.5670619001612	left	0	3,50371035028366	NA	NA	aae	1	2026-06-01_20h05.20.165	MR	2023.1.0	59.99876408589627	0,99056035594549
mr_images/4_a.png	mr_images/4_a_z_135.png	left	cw	135	NA	NA	NA	NA	0	25	25	105	325.7367556998506	NA	NA	NA	NA	326.2699616998434	326.2699616998434	left	1	3,319359066576	NA	NA	aae	1	2026-06-01_20h05.20.165	MR	2023.1.0	59.99876408589627	0,166107964818366
mr_images/12_b.png	mr_images/12_b_z_45.png	left	cw	45	NA	NA	NA	NA	0	78	78	61	318.15439839987084	NA	NA	NA	NA	318.6708177998662	318.6708177998662	right	0	3,9299884858483	NA	NA	aae	1	2026-06-01_20h05.20.165	MR	2023.1.0	59.99876408589627	0,509086993406527
mr_images/4_a.png	mr_images/4_a_z_315.png	left	ccw	45	NA	NA	NA	NA	0	32	32	99	680.6874156999402	NA	NA	NA	NA	681.2207427001558	681.2207427001558	right	0	3,44152763296734	NA	NA	aae	1	2026-06-01_20h05.20.165	MR	2023.1.0	59.99876408589627	0,87877378880512
mr_images/5_b.png	mr_images/5_b_z_225.png	left	ccw	135	NA	NA	NA	NA	0	157	157	143	231.5664264997467	NA	NA	NA	NA	NA	232.11632989998907	left	1	3,23791604870348	NA	NA	aae	1	2026-06-01_20h05.20.165	MR	2023.1.0	59.99876408589627	0,526855854433961
mr_images/6_b.png	mr_images/6_b_z_135.png	left	cw	135	NA	NA	NA	NA	0	68	68	165	400.2595994998701	NA	NA	NA	NA	400.826276499778	400.826276499778	right	0	2,80628283836996	NA	NA	aae	1	2026-06-01_20h05.20.165	MR	2023.1.0	59.99876408589627	0,110304618370719
mr_images/7_a.png	mr_images/7_a_z_45.png	left	cw	45	NA	NA	NA	NA	0	175	175	169	663.6231188997626	NA	NA	NA	NA	664.1564210997894	664.1564210997894	left	1	3,20080464167404	NA	NA	aae	1	2026-06-01_20h05.20.165	MR	2023.1.0	59.99876408589627	0,460578387486748
mr_images/4_a.png	mr_images/4_b_z_135.png	right	cw	135	NA	NA	NA	NA	0	101	101	104	536.6575512001291	NA	NA	NA	NA	537.1908248998225	537.1908248998225	left	0	1,99173498470919	NA	NA	aae	1	2026-06-01_20h05.20.165	MR	2023.1.0	59.99876408589627	0,382341714226641
mr_images/6_b.png	mr_images/6_a_z_90.png	right	cw	90	NA	NA	NA	NA	0	49	49	160	816.8184961997904	NA	NA	NA	NA	817.3517363001592	817.3517363001592	left	0	3,13302129352814	NA	NA	aae	1	2026-06-01_20h05.20.165	MR	2023.1.0	59.99876408589627	0,0634730510646477
mr_images/12_b.png	mr_images/12_b_z_315.png	left	ccw	45	NA	NA	NA	NA	0	181	181	63	609.6974682998843	NA	NA	NA	NA	610.230574300047	610.230574300047	right	0	4,05409337134916	NA	NA	aae	1	2026-06-01_20h05.20.165	MR	2023.1.0	59.99876408589627	0,131966795655899
mr_images/7_a.png	mr_images/7_b_z_90.png	right	cw	90	NA	NA	NA	NA	0	132	132	172	575.152160000056	NA	NA	NA	NA	575.685128999874	575.685128999874	left	1	2,76383178253309	NA	NA	aae	1	2026-06-01_20h05.20.165	MR	2023.1.0	59.99876408589627	0,36983514286112
mr_images/4_b.png	mr_images/4_a_z_135.png	right	cw	135	NA	NA	NA	NA	0	73	73	116	304.9605958000757	NA	NA	NA	NA	305.5227760998532	305.5227760998532	left	0	2,50186603757902	NA	NA	aae	1	2026-06-01_20h05.20.165	MR	2023.1.0	59.99876408589627	0,982078861794435
mr_images/3_b.png	mr_images/3_b_z_90.png	left	cw	90	NA	NA	NA	NA	0	170	170	89	467.6336757000536	NA	NA	NA	NA	468.1833501998335	468.1833501998335	right	0	4,46345909571391	NA	NA	aae	1	2026-06-01_20h05.20.165	MR	2023.1.0	59.99876408589627	0,847196011687629
mr_images/11_a.png	mr_images/11_a_z_90.png	left	cw	90	NA	NA	NA	NA	0	36	36	29	635.4270113999955	NA	NA	NA	NA	635.960204300005	635.960204300005	left	1	3,0963865883823	NA	NA	aae	1	2026-06-01_20h05.20.165	MR	2023.1.0	59.99876408589627	0,372227612067945
mr_images/1_b.png	mr_images/1_b_z_225.png	left	ccw	135	NA	NA	NA	NA	0	191	191	23	628.8947044997476	NA	NA	NA	NA	629.4321902999654	629.4321902999654	right	0	3,01741505900281	NA	NA	aae	1	2026-06-01_20h05.20.165	MR	2023.1.0	59.99876408589627	0,855968231218867
mr_images/1_b.png	mr_images/1_a_z_90.png	right	cw	90	NA	NA	NA	NA	0	81	81	16	246.19765290012583	NA	NA	NA	NA	246.73094560019672	246.73094560019672	left	0	2,77505730112898	NA	NA	aae	1	2026-06-01_20h05.20.165	MR	2023.1.0	59.99876408589627	0,0415774708380923
mr_images/3_a.png	mr_images/3_a_z_45.png	left	cw	45	NA	NA	NA	NA	0	166	166	73	797.3378404001705	NA	NA	NA	NA	797.8711056998	797.8711056998	right	1	4,63036144743092	NA	NA	aae	1	2026-06-01_20h05.20.165	MR	2023.1.0	59.99876408589627	0,396269398159348
mr_images/1_a.png	mr_images/1_b_z_45.png	right	cw	45	NA	NA	NA	NA	0	210	210	0	781.2402753001079	NA	NA	NA	NA	781.7733494001441	781.7733494001441	right	1	2,0171703629021	NA	NA	aae	1	2026-06-01_20h05.20.165	MR	2023.1.0	59.99876408589627	0,164407120668329
mr_images/9_a.png	mr_images/9_a_z_270.png	left	ccw	90	NA	NA	NA	NA	0	129	129	199	351.4331817999482	NA	NA	NA	NA	351.98852750007063	351.98852750007063	left	1	3,44921370942029	NA	NA	aae	1	2026-06-01_20h05.20.165	MR	2023.1.0	59.99876408589627	0,947017927770503
mr_images/12_b.png	mr_images/12_a_z_135.png	right	cw	135	NA	NA	NA	NA	0	67	67	68	119.96516899997368	NA	NA	NA	NA	120.548446000088	120.548446000088	left	0	2,47163201958756	NA	NA	aae	1	2026-06-01_20h05.20.165	MR	2023.1.0	59.99876408589627	0,442021431517787
mr_images/12_a.png	mr_images/12_a_z_135.png	left	cw	135	NA	NA	NA	NA	0	59	59	57	376.696362900082	NA	NA	NA	NA	377.246183199808	377.246183199808	right	0	3,33431631766144	NA	NA	aae	1	2026-06-01_20h05.20.165	MR	2023.1.0	59.99876408589627	0,746580133098178
mr_images/9_a.png	mr_images/9_a_z_45.png	left	cw	45	NA	NA	NA	NA	0	41	41	193	726.3353097997606	NA	NA	NA	NA	726.8643442997709	726.8643442997709	right	0	4,04512225699727	NA	NA	aae	1	2026-06-01_20h05.20.165	MR	2023.1.0	59.99876408589627	0,764819451724179
mr_images/5_a.png	mr_images/5_b_z_270.png	right	ccw	90	NA	NA	NA	NA	0	147	147	126	403.47580430004746	NA	NA	NA	NA	404.02835359983146	404.02835359983146	left	1	3,35547830033465	NA	NA	aae	1	2026-06-01_20h05.20.165	MR	2023.1.0	59.99876408589627	0,958967865095474
mr_images/4_b.png	mr_images/4_b_z_270.png	left	ccw	90	NA	NA	NA	NA	0	213	213	115	846.0644736001268	NA	NA	NA	NA	846.5977626000531	846.5977626000531	right	0	2,28933097652044	NA	NA	aae	1	2026-06-01_20h05.20.165	MR	2023.1.0	59.99876408589627	0,650441381731071
mr_images/11_a.png	mr_images/11_a_z_270.png	left	ccw	90	NA	NA	NA	NA	0	3	3	31	266.78245159983635	NA	NA	NA	NA	267.34477749979123	267.34477749979123	right	0	3,24302352548693	NA	NA	aae	1	2026-06-01_20h05.20.165	MR	2023.1.0	59.99876408589627	0,714473888627254
mr_images/3_b.png	mr_images/3_a_z_225.png	right	ccw	135	NA	NA	NA	NA	0	82	82	94	542.7232309998944	NA	NA	NA	NA	543.2594650001265	543.2594650001265	left	1	4,24218149503577	NA	NA	aae	1	2026-06-01_20h05.20.165	MR	2023.1.0	59.99876408589627	0,581167175550945
mr_images/12_a.png	mr_images/12_a_z_270.png	left	ccw	90	NA	NA	NA	NA	0	14	14	55	253.6300400001928	NA	NA	NA	NA	254.18585429992527	254.18585429992527	right	1	3,87043463953887	NA	NA	aae	1	2026-06-01_20h05.20.165	MR	2023.1.0	59.99876408589627	0,320084183127619
mr_images/4_a.png	mr_images/4_a_z_90.png	left	cw	90	NA	NA	NA	NA	0	15	15	101	703.80088720005	NA	NA	NA	NA	704.3342575998977	704.3342575998977	right	1	4,27951192812179	NA	NA	aae	1	2026-06-01_20h05.20.165	MR	2023.1.0	59.99876408589627	0,39279716683086
mr_images/9_b.png	mr_images/9_a_z_270.png	right	ccw	90	NA	NA	NA	NA	0	182	182	210	645.7923380001448	NA	NA	NA	NA	646.3256032001227	646.3256032001227	left	1	3,61628516661586	NA	NA	aae	1	2026-06-01_20h05.20.165	MR	2023.1.0	59.99876408589627	0,930725806974806
mr_images/4_a.png	mr_images/4_b_z_225.png	right	ccw	135	NA	NA	NA	NA	0	44	44	106	852.2803040998988	NA	NA	NA	NA	852.8135274997912	852.8135274997912	left	0	2,9693382854748	NA	NA	aae	1	2026-06-01_20h05.20.165	MR	2023.1.0	59.99876408589627	0,490024978178553
mr_images/6_b.png	mr_images/6_b_z_90.png	left	cw	90	NA	NA	NA	NA	0	121	121	161	312.90936829987913	NA	NA	NA	NA	313.43863019999117	313.43863019999117	right	0	3,08167342553497	NA	NA	aae	1	2026-06-01_20h05.20.165	MR	2023.1.0	59.99876408589627	0,624073612620123
mr_images/9_b.png	mr_images/9_b_z_90.png	left	cw	90	NA	NA	NA	NA	0	6	6	209	809.9361386997625	NA	NA	NA	NA	810.4694678001106	810.4694678001106	right	0	2,4851284743927	NA	NA	aae	1	2026-06-01_20h05.20.165	MR	2023.1.0	59.99876408589627	0,502537733293138
mr_images/7_a.png	mr_images/7_a_z_225.png	left	ccw	135	NA	NA	NA	NA	0	151	151	179	533.3621068000793	NA	NA	NA	NA	533.9244035999291	533.9244035999291	right	0	2,72834505923674	NA	NA	aae	1	2026-06-01_20h05.20.165	MR	2023.1.0	59.99876408589627	0,110342020285316
mr_images/9_b.png	mr_images/9_a_z_45.png	right	cw	45	NA	NA	NA	NA	0	188	188	204	329.13625619979575	NA	NA	NA	NA	329.7056860998273	329.7056860998273	left	0	3,59637682724861	NA	NA	aae	1	2026-06-01_20h05.20.165	MR	2023.1.0	59.99876408589627	0,415568341151811
mr_images/4_a.png	mr_images/4_b_z_270.png	right	ccw	90	NA	NA	NA	NA	0	133	133	102	515.4103572000749	NA	NA	NA	NA	515.9602930997498	515.9602930997498	left	1	2,79354014745331	NA	NA	aae	1	2026-06-01_20h05.20.165	MR	2023.1.0	59.99876408589627	0,227251587552018
mr_images/11_a.png	mr_images/11_a_z_135.png	left	cw	135	NA	NA	NA	NA	0	77	77	33	493.64655360020697	NA	NA	NA	NA	494.18009349983186	494.18009349983186	right	1	1,8763498266635	NA	NA	aae	1	2026-06-01_20h05.20.165	MR	2023.1.0	59.99876408589627	0,75179191713687
mr_images/11_b.png	mr_images/11_a_z_315.png	right	ccw	45	NA	NA	NA	NA	0	104	104	38	783.8063892000355	NA	NA	NA	NA	784.3396660001017	784.3396660001017	left	0	3,18096770354896	NA	NA	aae	1	2026-06-01_20h05.20.165	MR	2023.1.0	59.99876408589627	0,527203118545003
mr_images/7_a.png	mr_images/7_a_z_135.png	left	cw	135	NA	NA	NA	NA	0	176	176	177	760.5598054002039	NA	NA	NA	NA	761.0928858001716	761.0928858001716	right	0	4,31671618574183	NA	NA	aae	1	2026-06-01_20h05.20.165	MR	2023.1.0	59.99876408589627	0,858209991711192
mr_images/4_b.png	mr_images/4_b_z_225.png	left	ccw	135	NA	NA	NA	NA	0	26	26	119	361.2150697000325	NA	NA	NA	NA	361.7540628002025	361.7540628002025	left	1	1,79723554415977	NA	NA	aae	1	2026-06-01_20h05.20.165	MR	2023.1.0	59.99876408589627	0,935752793331631
mr_images/12_b.png	mr_images/12_b_z_135.png	left	cw	135	NA	NA	NA	NA	0	154	154	69	820.5346678998321	NA	NA	NA	NA	821.0679266001098	821.0679266001098	right	0	2,97743022217765	NA	NA	aae	1	2026-06-01_20h05.20.165	MR	2023.1.0	59.99876408589627	0,721321316319518
mr_images/7_b.png	mr_images/7_a_z_225.png	right	ccw	135	NA	NA	NA	NA	0	168	168	190	752.9106931001879	NA	NA	NA	NA	753.4439807999879	753.4439807999879	left	0	3,77483563314308	NA	NA	aae	1	2026-06-01_20h05.20.165	MR	2023.1.0	59.99876408589627	0,807837840984576
mr_images/5_a.png	mr_images/5_b_z_135.png	right	cw	135	NA	NA	NA	NA	0	177	177	128	417.79058780008927	NA	NA	NA	NA	418.3431516001001	418.3431516001001	left	0	3,45711981397471	NA	NA	aae	1	2026-06-01_20h05.20.165	MR	2023.1.0	59.99876408589627	0,765311757451855
mr_images/4_a.png	mr_images/4_b_z_90.png	right	cw	90	NA	NA	NA	NA	0	28	28	100	502.0164908999577	NA	NA	NA	NA	502.5456122998148	502.5456122998148	left	1	4,57019256657804	NA	NA	aae	1	2026-06-01_20h05.20.165	MR	2023.1.0	59.99876408589627	0,743457983131521
mr_images/5_b.png	mr_images/5_b_z_270.png	left	ccw	90	NA	NA	NA	NA	0	208	208	139	749.9987201001495	NA	NA	NA	NA	750.5274189999327	750.5274189999327	right	1	3,135850633058	NA	NA	aae	1	2026-06-01_20h05.20.165	MR	2023.1.0	59.99876408589627	0,937415994121693
mr_images/7_a.png	mr_images/7_b_z_45.png	right	cw	45	NA	NA	NA	NA	0	100	100	168	126.2477429001592	NA	NA	NA	NA	126.81698289979248	126.81698289979248	left	0	2,3911114706134	NA	NA	aae	1	2026-06-01_20h05.20.165	MR	2023.1.0	59.99876408589627	0,192370395292528
mr_images/11_b.png	mr_images/11_b_z_90.png	left	cw	90	NA	NA	NA	NA	0	183	183	41	625.3786251000129	NA	NA	NA	NA	625.928078299854	625.928078299854	right	1	2,91147356640431	NA	NA	aae	1	2026-06-01_20h05.20.165	MR	2023.1.0	59.99876408589627	0,0109664307674393
mr_images/1_b.png	mr_images/1_a_z_135.png	right	cw	135	NA	NA	NA	NA	0	211	211	20	463.9341287999414	NA	NA	NA	NA	464.5007225000299	464.5007225000299	left	0	3,57481781297247	NA	NA	aae	1	2026-06-01_20h05.20.165	MR	2023.1.0	59.99876408589627	0,290318441693671
mr_images/9_b.png	mr_images/9_a_z_315.png	right	ccw	45	NA	NA	NA	NA	0	76	76	206	128.8683011997491	NA	NA	NA	NA	129.4472491000779	129.4472491000779	left	0	2,87595759591205	NA	NA	aae	1	2026-06-01_20h05.20.165	MR	2023.1.0	59.99876408589627	0,322085632826202
mr_images/7_b.png	mr_images/7_b_z_135.png	left	cw	135	NA	NA	NA	NA	0	48	48	189	406.5964131001383	NA	NA	NA	NA	407.14381599985063	407.14381599985063	right	1	3,94965055488865	NA	NA	aae	1	2026-06-01_20h05.20.165	MR	2023.1.0	59.99876408589627	0,819005566765554
mr_images/1_b.png	mr_images/1_b_z_45.png	left	cw	45	NA	NA	NA	NA	0	139	139	13	756.9435212998651	NA	NA	NA	NA	757.5101030999795	757.5101030999795	right	1	3,55906107617193	NA	NA	aae	1	2026-06-01_20h05.20.165	MR	2023.1.0	59.99876408589627	0,320445562130772
mr_images/3_b.png	mr_images/3_a_z_270.png	right	ccw	90	NA	NA	NA	NA	0	47	47	90	684.1203076001257	NA	NA	NA	NA	684.6534796999767	684.6534796999767	left	0	2,88574637167039	NA	NA	aae	1	2026-06-01_20h05.20.165	MR	2023.1.0	59.99876408589627	0,771522366325371
mr_images/9_a.png	mr_images/9_b_z_135.png	right	cw	135	NA	NA	NA	NA	0	204	204	200	276.66011400008574	NA	NA	NA	NA	277.2127896999009	277.2127896999009	left	0	2,79482130947873	NA	NA	aae	1	2026-06-01_20h05.20.165	MR	2023.1.0	59.99876408589627	0,113349530496635
mr_images/6_b.png	mr_images/6_a_z_225.png	right	ccw	135	NA	NA	NA	NA	0	115	115	166	598.4321563998237	NA	NA	NA	NA	598.9653647998348	598.9653647998348	left	1	2,1554495288583	NA	NA	aae	1	2026-06-01_20h05.20.165	MR	2023.1.0	59.99876408589627	0,897762207663618
mr_images/9_a.png	mr_images/9_a_z_225.png	left	ccw	135	NA	NA	NA	NA	0	39	39	203	509.265459800139	NA	NA	NA	NA	509.7941160998307	509.7941160998307	right	1	2,76745791020221	NA	NA	aae	1	2026-06-01_20h05.20.165	MR	2023.1.0	59.99876408589627	0,883418818120845
mr_images/3_a.png	mr_images/3_a_z_270.png	left	ccw	90	NA	NA	NA	NA	0	206	206	79	234.61595739983025	NA	NA	NA	NA	235.18254599999636	235.18254599999636	right	0	3,56652835759451	NA	NA	aae	1	2026-06-01_20h05.20.165	MR	2023.1.0	59.99876408589627	0,0171558134024963
mr_images/12_b.png	mr_images/12_a_z_315.png	right	ccw	45	NA	NA	NA	NA	0	155	155	62	779.2903804997914	NA	NA	NA	NA	779.8236428997479	779.8236428997479	left	1	1,9312774426362	NA	NA	aae	1	2026-06-01_20h05.20.165	MR	2023.1.0	59.99876408589627	0,36369624582585
mr_images/4_b.png	mr_images/4_a_z_45.png	right	cw	45	NA	NA	NA	NA	0	84	84	108	348.01696000015363	NA	NA	NA	NA	348.5835961000994	348.5835961000994	left	1	3,56239653806551	NA	NA	aae	1	2026-06-01_20h05.20.165	MR	2023.1.0	59.99876408589627	0,587649767869152
mr_images/7_a.png	mr_images/7_a_z_270.png	left	ccw	90	NA	NA	NA	NA	0	135	135	175	686.7366194999777	NA	NA	NA	NA	687.2698526000604	687.2698526000604	right	0	2,05865736622945	NA	NA	aae	1	2026-06-01_20h05.20.165	MR	2023.1.0	59.99876408589627	0,832628033007495
mr_images/5_a.png	mr_images/5_a_z_90.png	left	cw	90	NA	NA	NA	NA	0	202	202	125	656.290811299812	NA	NA	NA	NA	656.8240339001641	656.8240339001641	right	0	3,76589905886794	NA	NA	aae	1	2026-06-01_20h05.20.165	MR	2023.1.0	59.99876408589627	0,869851607014425
mr_images/1_a.png	mr_images/1_a_z_315.png	left	ccw	45	NA	NA	NA	NA	0	72	72	3	836.4824080001563	NA	NA	NA	NA	837.0157730001956	837.0157730001956	right	0	4,51909727414022	NA	NA	aae	1	2026-06-01_20h05.20.165	MR	2023.1.0	59.99876408589627	0,153683080920018
mr_images/1_a.png	mr_images/1_b_z_90.png	right	cw	90	NA	NA	NA	NA	0	189	189	4	734.2467049998231	NA	NA	NA	NA	734.7796990000643	734.7796990000643	left	1	3,99586026722681	NA	NA	aae	1	2026-06-01_20h05.20.165	MR	2023.1.0	59.99876408589627	0,451429376495071
mr_images/3_a.png	mr_images/3_b_z_315.png	right	ccw	45	NA	NA	NA	NA	0	178	178	74	823.5842051999643	NA	NA	NA	NA	824.1175724999048	824.1175724999048	left	1	3,89108572844998	NA	NA	aae	1	2026-06-01_20h05.20.165	MR	2023.1.0	59.99876408589627	0,609896758687682
mr_images/1_b.png	mr_images/1_b_z_270.png	left	ccw	90	NA	NA	NA	NA	0	75	75	19	122.9814515998587	NA	NA	NA	NA	123.56492230016738	123.56492230016738	left	1	3,28203972664778	NA	NA	aae	1	2026-06-01_20h05.20.165	MR	2023.1.0	59.99876408589627	0,25077039853204
mr_images/6_a.png	mr_images/6_b_z_90.png	right	cw	90	NA	NA	NA	NA	0	215	215	148	153.51061470014974	NA	NA	NA	NA	154.0619454998523	154.0619454998523	left	0	4,02759627290652	NA	NA	aae	1	2026-06-01_20h05.20.165	MR	2023.1.0	59.99876408589627	0,750607726979069
mr_images/3_a.png	mr_images/3_b_z_90.png	right	cw	90	NA	NA	NA	NA	0	120	120	76	713.7994389999658	NA	NA	NA	NA	714.3329416997731	714.3329416997731	right	1	4,64027006007381	NA	NA	aae	1	2026-06-01_20h05.20.165	MR	2023.1.0	59.99876408589627	0,638287670561113
mr_images/11_a.png	mr_images/11_b_z_270.png	right	ccw	90	NA	NA	NA	NA	0	52	52	30	578.2516516000032	NA	NA	NA	NA	578.8077250001952	578.8077250001952	left	1	2,31041836153599	NA	NA	aae	1	2026-06-01_20h05.20.165	MR	2023.1.0	59.99876408589627	0,246074459864758
mr_images/4_b.png	mr_images/4_b_z_45.png	left	cw	45	NA	NA	NA	NA	0	8	8	109	438.3543897997588	NA	NA	NA	NA	438.9098407998681	438.9098407998681	right	0	3,39440159374499	NA	NA	aae	1	2026-06-01_20h05.20.165	MR	2023.1.0	59.99876408589627	0,805119885946624
mr_images/6_b.png	mr_images/6_b_z_315.png	left	ccw	45	NA	NA	NA	NA	0	160	160	159	592.9661944000982	NA	NA	NA	NA	593.5328139001504	593.5328139001504	right	1	4,21427491414943	NA	NA	aae	1	2026-06-01_20h05.20.165	MR	2023.1.0	59.99876408589627	0,117140294634737
mr_images/12_a.png	mr_images/12_b_z_315.png	right	ccw	45	NA	NA	NA	NA	0	124	124	50	569.490424099844	NA	NA	NA	NA	570.0527885998599	570.0527885998599	left	1	2,35109502493287	NA	NA	aae	1	2026-06-01_20h05.20.165	MR	2023.1.0	59.99876408589627	0,714780755690299
mr_images/7_a.png	mr_images/7_b_z_135.png	right	cw	135	NA	NA	NA	NA	0	69	69	176	410.3291772999801	NA	NA	NA	NA	410.8749207998626	410.8749207998626	right	1	3,86760350994882	NA	NA	aae	1	2026-06-01_20h05.20.165	MR	2023.1.0	59.99876408589627	0,748567924485542
mr_images/4_a.png	mr_images/4_a_z_270.png	left	ccw	90	NA	NA	NA	NA	0	125	125	103	196.35889799986035	NA	NA	NA	NA	196.93788880016655	196.93788880016655	right	0	3,20622306279256	NA	NA	aae	1	2026-06-01_20h05.20.165	MR	2023.1.0	59.99876408589627	0,293185001122765
mr_images/11_a.png	mr_images/11_a_z_315.png	left	ccw	45	NA	NA	NA	NA	0	11	11	27	112.93299470003694	NA	NA	NA	NA	113.49969229986893	113.49969229986893	left	1	3,25542519809096	NA	NA	aae	1	2026-06-01_20h05.20.165	MR	2023.1.0	59.99876408589627	0,11698101751972
mr_images/7_b.png	mr_images/7_a_z_270.png	right	ccw	90	NA	NA	NA	NA	0	174	174	186	561.6539063998498	NA	NA	NA	NA	562.2205701000057	562.2205701000057	right	1	3,74663721930119	NA	NA	aae	1	2026-06-01_20h05.20.165	MR	2023.1.0	59.99876408589627	0,10379688499961
mr_images/4_b.png	mr_images/4_b_z_90.png	left	cw	90	NA	NA	NA	NA	0	110	110	113	414.00772099988535	NA	NA	NA	NA	414.5744243999943	414.5744243999943	left	1	3,93068994322675	NA	NA	aae	1	2026-06-01_20h05.20.165	MR	2023.1.0	59.99876408589627	0,835054066381417
mr_images/3_a.png	mr_images/3_b_z_135.png	right	cw	135	NA	NA	NA	NA	0	185	185	80	692.4859088999219	NA	NA	NA	NA	693.0190464998595	693.0190464998595	left	1	3,15870714370977	NA	NA	aae	1	2026-06-01_20h05.20.165	MR	2023.1.0	59.99876408589627	0,277849166537635
mr_images/7_b.png	mr_images/7_b_z_225.png	left	ccw	135	NA	NA	NA	NA	0	117	117	191	238.23218380007893	NA	NA	NA	NA	NA	238.76541939983144	right	0	3,89168771452387	NA	NA	aae	1	2026-06-01_20h05.20.165	MR	2023.1.0	59.99876408589627	0,935396932880394
mr_images/7_a.png	mr_images/7_b_z_270.png	right	ccw	90	NA	NA	NA	NA	0	158	158	174	652.4913306999952	NA	NA	NA	NA	653.0245559001341	653.0245559001341	left	1	3,96948006589082	NA	NA	aae	1	2026-06-01_20h05.20.165	MR	2023.1.0	59.99876408589627	0,621883435058408
mr_images/3_a.png	mr_images/3_a_z_90.png	left	cw	90	NA	NA	NA	NA	0	169	169	77	392.8482050998136	NA	NA	NA	NA	393.3773473999463	393.3773473999463	left	1	3,99718639531056	NA	NA	aae	1	2026-06-01_20h05.20.165	MR	2023.1.0	59.99876408589627	0,0418361237971112
mr_images/3_b.png	mr_images/3_b_z_315.png	left	ccw	45	NA	NA	NA	NA	0	95	95	87	808.3197634001262	NA	NA	NA	NA	808.8860800000839	808.8860800000839	right	1	1,14038190725841	NA	NA	aae	1	2026-06-01_20h05.20.165	MR	2023.1.0	59.99876408589627	0,948018397320993
mr_images/5_b.png	mr_images/5_a_z_90.png	right	cw	90	NA	NA	NA	NA	0	17	17	136	546.9893363998272	NA	NA	NA	NA	547.5560094001703	547.5560094001703	left	0	3,52348321923637	NA	NA	aae	1	2026-06-01_20h05.20.165	MR	2023.1.0	59.99876408589627	0,0889575734036043
mr_images/3_a.png	mr_images/3_a_z_225.png	left	ccw	135	NA	NA	NA	NA	0	90	90	83	554.7384575000033	NA	NA	NA	NA	555.2718460997567	555.2718460997567	right	0	3,02171184492181	NA	NA	aae	1	2026-06-01_20h05.20.165	MR	2023.1.0	59.99876408589627	0,702825057902373
mr_images/1_a.png	mr_images/1_a_z_135.png	left	cw	135	NA	NA	NA	NA	0	171	171	9	700.6679369001649	NA	NA	NA	NA	701.2012156997807	701.2012156997807	left	1	2,7775855451182	NA	NA	aae	1	2026-06-01_20h05.20.165	MR	2023.1.0	59.99876408589627	0,268555652699433
mr_images/1_b.png	mr_images/1_a_z_225.png	right	ccw	135	NA	NA	NA	NA	0	50	50	22	181.59005129989237	NA	NA	NA	NA	NA	182.15669470001012	left	0	3,48067676564096	NA	NA	aae	1	2026-06-01_20h05.20.165	MR	2023.1.0	59.99876408589627	0,441566648078151
mr_images/6_b.png	mr_images/6_a_z_135.png	right	cw	135	NA	NA	NA	NA	0	29	29	164	297.55754159996286	NA	NA	NA	NA	298.1238685999997	298.1238685999997	left	1	3,25056561341626	NA	NA	aae	1	2026-06-01_20h05.20.165	MR	2023.1.0	59.99876408589627	0,530121168470942
mr_images/6_b.png	mr_images/6_b_z_270.png	left	ccw	90	NA	NA	NA	NA	0	207	207	163	321.78963880008087	NA	NA	NA	NA	NA	322.3372157998383	right	0	3,39593918967876	NA	NA	aae	1	2026-06-01_20h05.20.165	MR	2023.1.0	59.99876408589627	0,167778994538821
mr_images/6_a.png	mr_images/6_a_z_90.png	left	cw	90	NA	NA	NA	NA	0	62	62	149	426.9059366001747	NA	NA	NA	NA	427.4391254000366	427.4391254000366	left	1	2,52455631000339	NA	NA	aae	1	2026-06-01_20h05.20.165	MR	2023.1.0	59.99876408589627	0,444963135407306
mr_images/9_b.png	mr_images/9_b_z_225.png	left	ccw	135	NA	NA	NA	NA	0	137	137	215	830.0499674999155	NA	NA	NA	NA	830.5833180001937	830.5833180001937	right	0	2,28475027673994	NA	NA	aae	1	2026-06-01_20h05.20.165	MR	2023.1.0	59.99876408589627	0,222781080869026
mr_images/9_b.png	mr_images/9_a_z_135.png	right	cw	135	NA	NA	NA	NA	0	138	138	212	147.17818599985912	NA	NA	NA	NA	147.72803380014375	147.72803380014375	left	0	3,39659776407643	NA	NA	aae	1	2026-06-01_20h05.20.165	MR	2023.1.0	59.99876408589627	0,78494146943558
mr_images/7_a.png	mr_images/7_b_z_315.png	right	ccw	45	NA	NA	NA	NA	0	118	118	170	738.1793884001672	NA	NA	NA	NA	738.6989763001911	738.6989763001911	left	1	2,25684399940655	NA	NA	aae	1	2026-06-01_20h05.20.165	MR	2023.1.0	59.99876408589627	0,317935605417006
mr_images/9_b.png	mr_images/9_a_z_90.png	right	cw	90	NA	NA	NA	NA	0	24	24	208	286.79208269994706	NA	NA	NA	NA	287.35864710016176	287.35864710016176	left	0	3,91942875625682	NA	NA	aae	1	2026-06-01_20h05.20.165	MR	2023.1.0	59.99876408589627	0,27052534732502
mr_images/9_a.png	mr_images/9_a_z_315.png	left	ccw	45	NA	NA	NA	NA	0	106	106	195	539.1237312001176	NA	NA	NA	NA	539.6569161000662	539.6569161000662	right	0	3,59103432219126	NA	NA	aae	1	2026-06-01_20h05.20.165	MR	2023.1.0	59.99876408589627	0,953651032526977
mr_images/7_b.png	mr_images/7_a_z_135.png	right	cw	135	NA	NA	NA	NA	0	187	187	188	689.5362982000224	NA	NA	NA	NA	690.10268120002	690.10268120002	left	0	2,63198081430165	NA	NA	aae	1	2026-06-01_20h05.20.165	MR	2023.1.0	59.99876408589627	0,356365569517948
mr_images/1_a.png	mr_images/1_b_z_315.png	right	ccw	45	NA	NA	NA	NA	0	89	89	2	222.4009667001665	NA	NA	NA	NA	222.93433739989996	222.93433739989996	left	0	3,70253905342543	NA	NA	aae	1	2026-06-01_20h05.20.165	MR	2023.1.0	59.99876408589627	0,811357219819911
mr_images/12_a.png	mr_images/12_a_z_315.png	left	ccw	45	NA	NA	NA	NA	0	148	148	51	382.11223449977115	NA	NA	NA	NA	382.6788734998554	382.6788734998554	left	1	4,18464860090171	NA	NA	aae	1	2026-06-01_20h05.20.165	MR	2023.1.0	59.99876408589627	0,378481106483378
mr_images/5_b.png	mr_images/5_a_z_135.png	right	cw	135	NA	NA	NA	NA	0	192	192	140	642.7593411998823	NA	NA	NA	NA	643.2925411001779	643.2925411001779	left	1	2,52191851937096	NA	NA	aae	1	2026-06-01_20h05.20.165	MR	2023.1.0	59.99876408589627	0,811379321035929
mr_images/3_b.png	mr_images/3_a_z_315.png	right	ccw	45	NA	NA	NA	NA	0	18	18	86	806.5909376000054	NA	NA	NA	NA	807.1365122999996	807.1365122999996	left	0	1,28421408720897	NA	NA	aae	1	2026-06-01_20h05.20.165	MR	2023.1.0	59.99876408589627	0,589489727397449
mr_images/9_b.png	mr_images/9_a_z_225.png	right	ccw	135	NA	NA	NA	NA	0	0	0	214	447.2031621001661	NA	NA	NA	NA	447.753136199899	447.753136199899	left	0	3,60129569945275	NA	NA	aae	1	2026-06-01_20h05.20.165	MR	2023.1.0	59.99876408589627	0,963699914631434
mr_images/9_a.png	mr_images/9_a_z_90.png	left	cw	90	NA	NA	NA	NA	0	194	194	197	332.6733638001606	NA	NA	NA	NA	333.20588260004297	333.20588260004297	right	0	4,20190833866945	NA	NA	aae	1	2026-06-01_20h05.20.165	MR	2023.1.0	59.99876408589627	0,557132345740683
mr_images/9_a.png	mr_images/9_b_z_315.png	right	ccw	45	NA	NA	NA	NA	0	143	143	194	207.536583899986	NA	NA	NA	NA	208.11969339987263	208.11969339987263	left	0	1,32533857013914	NA	NA	aae	1	2026-06-01_20h05.20.165	MR	2023.1.0	59.99876408589627	0,506189440493472
mr_images/5_b.png	mr_images/5_a_z_270.png	right	ccw	90	NA	NA	NA	NA	0	92	92	138	110.54981279978529	NA	NA	NA	NA	111.13314539985733	111.13314539985733	left	1	1,68062728640507	NA	NA	aae	1	2026-06-01_20h05.20.165	MR	2023.1.0	59.99876408589627	0,804019025410526
mr_images/7_a.png	mr_images/7_b_z_225.png	right	ccw	135	NA	NA	NA	NA	0	103	103	178	453.9355954998173	NA	NA	NA	NA	454.4687537997961	454.4687537997961	left	1	3,2936357363651	NA	NA	aae	1	2026-06-01_20h05.20.165	MR	2023.1.0	59.99876408589627	0,101898656808771
mr_images/6_b.png	mr_images/6_b_z_225.png	left	ccw	135	NA	NA	NA	NA	0	13	13	167	793.9385083997622	NA	NA	NA	NA	794.4716656999663	794.4716656999663	right	0	3,33612722312682	NA	NA	aae	1	2026-06-01_20h05.20.165	MR	2023.1.0	59.99876408589627	0,189730903715827
mr_images/12_a.png	mr_images/12_a_z_90.png	left	cw	90	NA	NA	NA	NA	0	33	33	53	132.0301919998601	NA	NA	NA	NA	132.59685389976948	132.59685389976948	right	1	3,72895887502819	NA	NA	aae	1	2026-06-01_20h05.20.165	MR	2023.1.0	59.99876408589627	0,447457372327335
mr_images/3_b.png	mr_images/3_b_z_45.png	left	cw	45	NA	NA	NA	NA	0	7	7	85	695.3021003999747	NA	NA	NA	NA	695.8352338001132	695.8352338001132	right	1	5,46745821562945	NA	NA	aae	1	2026-06-01_20h05.20.165	MR	2023.1.0	59.99876408589627	0,723147442447953
mr_images/1_a.png	mr_images/1_a_z_90.png	left	cw	90	NA	NA	NA	NA	0	4	4	5	226.05045079998672	NA	NA	NA	NA	226.61715940013528	226.61715940013528	right	0	0,782583666819847	NA	NA	aae	1	2026-06-01_20h05.20.165	MR	2023.1.0	59.99876408589627	0,730032420600765
mr_images/11_b.png	mr_images/11_a_z_90.png	right	cw	90	NA	NA	NA	NA	0	108	108	40	529.5620249998756	NA	NA	NA	NA	NA	530.1108595998958	right	1	3,69627695230884	NA	NA	aae	1	2026-06-01_20h05.20.165	MR	2023.1.0	59.99876408589627	0,720906667294912
mr_images/6_a.png	mr_images/6_b_z_135.png	right	cw	135	NA	NA	NA	NA	0	142	142	152	710.987433699891	NA	NA	NA	NA	711.5164740001783	711.5164740001783	left	0	2,37033681097091	NA	NA	aae	1	2026-06-01_20h05.20.165	MR	2023.1.0	59.99876408589627	0,58386479166802
mr_images/12_a.png	mr_images/12_b_z_45.png	right	cw	45	NA	NA	NA	NA	0	102	102	48	116.1490943999961	NA	NA	NA	NA	116.6990514001809	116.6990514001809	right	1	3,25165893757366	NA	NA	aae	1	2026-06-01_20h05.20.165	MR	2023.1.0	59.99876408589627	0,638035305892117
mr_images/6_a.png	mr_images/6_a_z_135.png	left	cw	135	NA	NA	NA	NA	0	107	107	153	768.3418765999377	NA	NA	NA	NA	768.8751396001317	768.8751396001317	right	1	3,85250160752912	NA	NA	aae	1	2026-06-01_20h05.20.165	MR	2023.1.0	59.99876408589627	0,764517591684125
mr_images/9_a.png	mr_images/9_b_z_45.png	right	cw	45	NA	NA	NA	NA	0	63	63	192	858.6626928998157	NA	NA	NA	NA	859.1958936001174	859.1958936001174	left	0	2,45433696600958	NA	NA	aae	1	2026-06-01_20h05.20.165	MR	2023.1.0	59.99876408589627	0,744913044036366
mr_images/5_a.png	mr_images/5_a_z_270.png	left	ccw	90	NA	NA	NA	NA	0	16	16	127	242.548402399756	NA	NA	NA	NA	243.08151810010895	243.08151810010895	left	1	3,29768518832861	NA	NA	aae	1	2026-06-01_20h05.20.165	MR	2023.1.0	59.99876408589627	0,838708775234409
mr_images/1_a.png	mr_images/1_b_z_270.png	right	ccw	90	NA	NA	NA	NA	0	93	93	6	802.60375439981	NA	NA	NA	NA	803.1412973999977	803.1412973999977	right	1	3,18211486501968	NA	NA	aae	1	2026-06-01_20h05.20.165	MR	2023.1.0	59.99876408589627	0,370552112231962
mr_images/3_a.png	mr_images/3_b_z_225.png	right	ccw	135	NA	NA	NA	NA	0	203	203	82	282.9635497997515	NA	NA	NA	NA	283.49244089983404	283.49244089983404	left	1	3,30915797027411	NA	NA	aae	1	2026-06-01_20h05.20.165	MR	2023.1.0	59.99876408589627	0,465545576415025
mr_images/12_a.png	mr_images/12_a_z_225.png	left	ccw	135	NA	NA	NA	NA	0	144	144	59	386.11586510017514	NA	NA	NA	NA	386.6446337001398	386.6446337001398	right	0	2,8971349473868	NA	NA	aae	1	2026-06-01_20h05.20.165	MR	2023.1.0	59.99876408589627	0,799171644146554
mr_images/5_a.png	mr_images/5_a_z_45.png	left	cw	45	NA	NA	NA	NA	0	130	130	121	367.5476613999344	NA	NA	NA	NA	368.0991385998205	368.0991385998205	left	1	1,63350744170021	NA	NA	aae	1	2026-06-01_20h05.20.165	MR	2023.1.0	59.99876408589627	0,0960502041270956
mr_images/3_b.png	mr_images/3_a_z_90.png	right	cw	90	NA	NA	NA	NA	0	60	60	88	171.25807400001213	NA	NA	NA	NA	171.8249137001112	171.8249137001112	left	0	4,4899594487797	NA	NA	aae	1	2026-06-01_20h05.20.165	MR	2023.1.0	59.99876408589627	0,163930000620894
mr_images/11_a.png	mr_images/11_a_z_225.png	left	ccw	135	NA	NA	NA	NA	0	86	86	35	107.26704820012674	NA	NA	NA	NA	107.85026009986176	107.85026009986176	left	1	2,79468640984851	NA	NA	aae	1	2026-06-01_20h05.20.165	MR	2023.1.0	59.99876408589627	0,594616150134243
mr_images/11_b.png	mr_images/11_a_z_225.png	right	ccw	135	NA	NA	NA	NA	0	10	10	46	585.7005023998208	NA	NA	NA	NA	586.2339193997905	586.2339193997905	left	0	2,5393310978252	NA	NA	aae	1	2026-06-01_20h05.20.165	MR	2023.1.0	59.99876408589627	0,976726751658134
mr_images/4_b.png	mr_images/4_a_z_225.png	right	ccw	135	NA	NA	NA	NA	0	196	196	118	421.61109110014513	NA	NA	NA	NA	422.139951699879	422.139951699879	left	0	2,81154917794629	NA	NA	aae	1	2026-06-01_20h05.20.165	MR	2023.1.0	59.99876408589627	0,942673155223019
mr_images/12_b.png	mr_images/12_a_z_90.png	right	cw	90	NA	NA	NA	NA	0	214	214	64	558.0711496998556	NA	NA	NA	NA	558.6042470000684	558.6042470000684	left	1	3,68300344314776	NA	NA	aae	1	2026-06-01_20h05.20.165	MR	2023.1.0	59.99876408589627	0,422264245920815
mr_images/1_b.png	mr_images/1_a_z_45.png	right	cw	45	NA	NA	NA	NA	0	123	123	12	723.048146000132	NA	NA	NA	NA	723.6030478999019	723.6030478999019	right	1	3,31461814438808	NA	NA	aae	1	2026-06-01_20h05.20.165	MR	2023.1.0	59.99876408589627	0,212873628013767
mr_images/9_a.png	mr_images/9_b_z_90.png	right	cw	90	NA	NA	NA	NA	0	193	193	196	444.2202372997999	NA	NA	NA	NA	444.77052260003984	444.77052260003984	left	0	2,72789122755058	NA	NA	aae	1	2026-06-01_20h05.20.165	MR	2023.1.0	59.99876408589627	0,0237963857362047
mr_images/3_b.png	mr_images/3_b_z_225.png	left	ccw	135	NA	NA	NA	NA	0	22	22	95	290.69150849990547	NA	NA	NA	NA	291.2247831998393	291.2247831998393	right	0	3,73697621168685	NA	NA	aae	1	2026-06-01_20h05.20.165	MR	2023.1.0	59.99876408589627	0,946510984213091
mr_images/4_b.png	mr_images/4_a_z_315.png	right	ccw	45	NA	NA	NA	NA	0	186	186	110	307.8224508999847	NA	NA	NA	NA	308.389065799769	308.389065799769	left	0	2,13438504646183	NA	NA	aae	1	2026-06-01_20h05.20.165	MR	2023.1.0	59.99876408589627	0,690493689733557
mr_images/5_b.png	mr_images/5_b_z_90.png	left	cw	90	NA	NA	NA	NA	0	38	38	137	506.4950522999279	NA	NA	NA	NA	507.033864099998	507.033864099998	left	1	2,34192302057636	NA	NA	aae	1	2026-06-01_20h05.20.165	MR	2023.1.0	59.99876408589627	0,403773860656656
mr_images/5_b.png	mr_images/5_a_z_225.png	right	ccw	135	NA	NA	NA	NA	0	134	134	142	279.9472254998982	NA	NA	NA	NA	280.4986159000546	280.4986159000546	left	0	2,89381028406205	NA	NA	aae	1	2026-06-01_20h05.20.165	MR	2023.1.0	59.99876408589627	0,413262727553956
mr_images/1_b.png	mr_images/1_b_z_315.png	left	ccw	45	NA	NA	NA	NA	0	173	173	15	138.7125731999986	NA	NA	NA	NA	139.27926099998876	139.27926099998876	right	0	3,28013170856866	NA	NA	aae	1	2026-06-01_20h05.20.165	MR	2023.1.0	59.99876408589627	0,0474455821095035
mr_images/3_b.png	mr_images/3_a_z_45.png	right	cw	45	NA	NA	NA	NA	0	116	116	84	355.28683939995244	NA	NA	NA	NA	355.84914579987526	355.84914579987526	left	0	2,92834306534496	NA	NA	aae	1	2026-06-01_20h05.20.165	MR	2023.1.0	59.99876408589627	0,191306654014625
mr_images/6_a.png	mr_images/6_a_z_225.png	left	ccw	135	NA	NA	NA	NA	0	112	112	155	142.12879210012034	NA	NA	NA	NA	142.69549289997667	142.69549289997667	right	0	4,42014811994158	NA	NA	aae	1	2026-06-01_20h05.20.165	MR	2023.1.0	59.99876408589627	0,753552314941771
mr_images/5_a.png	mr_images/5_a_z_135.png	left	cw	135	NA	NA	NA	NA	0	98	98	129	396.7269315999001	NA	NA	NA	NA	397.2934273998253	397.2934273998253	right	1	3,09084800435813	NA	NA	aae	1	2026-06-01_20h05.20.165	MR	2023.1.0	59.99876408589627	0,951355968485586
mr_images/7_a.png	mr_images/7_a_z_90.png	left	cw	90	NA	NA	NA	NA	0	35	35	173	743.0621217000298	NA	NA	NA	NA	743.595281700138	743.595281700138	right	0	3,57373220354202	NA	NA	aae	1	2026-06-01_20h05.20.165	MR	2023.1.0	59.99876408589627	0,172185696312226
mr_images/9_a.png	mr_images/9_a_z_135.png	left	cw	135	NA	NA	NA	NA	0	131	131	201	790.9387762998231	NA	NA	NA	NA	791.4720235997811	791.4720235997811	right	1	2,595268522884	NA	NA	aae	1	2026-06-01_20h05.20.165	MR	2023.1.0	59.99876408589627	0,686619840678759
mr_images/11_b.png	mr_images/11_b_z_45.png	left	cw	45	NA	NA	NA	NA	0	136	136	37	450.6027822000906	NA	NA	NA	NA	451.1691676997579	451.1691676997579	right	1	3,29747407717514	NA	NA	aae	1	2026-06-01_20h05.20.165	MR	2023.1.0	59.99876408589627	0,714887343463488
mr_images/12_a.png	mr_images/12_b_z_135.png	right	cw	135	NA	NA	NA	NA	0	113	113	56	261.37891520000994	NA	NA	NA	NA	261.92996060010046	261.92996060010046	left	0	2,80272328530554	NA	NA	aae	1	2026-06-01_20h05.20.165	MR	2023.1.0	59.99876408589627	0,803074763272889
mr_images/1_a.png	mr_images/1_a_z_270.png	left	ccw	90	NA	NA	NA	NA	0	88	88	7	855.2964131999761	NA	NA	NA	NA	855.8297556000762	855.8297556000762	right	1	3,43641273395042	NA	NA	aae	1	2026-06-01_20h05.20.165	MR	2023.1.0	59.99876408589627	0,811510464758612
mr_images/12_b.png	mr_images/12_a_z_225.png	right	ccw	135	NA	NA	NA	NA	0	179	179	70	340.53462450020015	NA	NA	NA	NA	341.1012097001076	341.1012097001076	left	0	3,1315887773817	NA	NA	aae	1	2026-06-01_20h05.20.165	MR	2023.1.0	59.99876408589627	0,70361355075147
mr_images/6_a.png	mr_images/6_a_z_45.png	left	cw	45	NA	NA	NA	NA	0	111	111	145	264.17860150011256	NA	NA	NA	NA	264.73279750021175	264.73279750021175	left	1	2,69525407862966	NA	NA	aae	1	2026-06-01_20h05.20.165	MR	2023.1.0	59.99876408589627	0,894739570678212
mr_images/9_b.png	mr_images/9_b_z_135.png	left	cw	135	NA	NA	NA	NA	0	20	20	213	512.2274632998742	NA	NA	NA	NA	512.7606254997663	512.7606254997663	left	1	3,10561056443839	NA	NA	aae	1	2026-06-01_20h05.20.165	MR	2023.1.0	59.99876408589627	0,670325253973715
mr_images/6_a.png	mr_images/6_a_z_270.png	left	ccw	90	NA	NA	NA	NA	0	2	2	151	740.483323500026	NA	NA	NA	NA	741.0122549999505	741.0122549999505	right	0	2,32701433615875	NA	NA	aae	1	2026-06-01_20h05.20.165	MR	2023.1.0	59.99876408589627	0,640687126084231
mr_images/5_a.png	mr_images/5_a_z_225.png	left	ccw	135	NA	NA	NA	NA	0	156	156	131	337.07264170004055	NA	NA	NA	NA	337.6024758000858	337.6024758000858	left	1	3,24228606952238	NA	NA	aae	1	2026-06-01_20h05.20.165	MR	2023.1.0	59.99876408589627	0,819398032384925
mr_images/4_b.png	mr_images/4_a_z_270.png	right	ccw	90	NA	NA	NA	NA	0	109	109	114	369.73484240006655	NA	NA	NA	NA	370.2638082001358	370.2638082001358	left	0	1,91602554594283	NA	NA	aae	1	2026-06-01_20h05.20.165	MR	2023.1.0	59.99876408589627	0,927468564244919
mr_images/3_a.png	mr_images/3_b_z_45.png	right	cw	45	NA	NA	NA	NA	0	5	5	72	638.8933314997703	NA	NA	NA	NA	639.4598333998583	639.4598333998583	left	0	4,15588740081875	NA	NA	aae	1	2026-06-01_20h05.20.165	MR	2023.1.0	59.99876408589627	0,131717252661474
mr_images/7_b.png	mr_images/7_a_z_90.png	right	cw	90	NA	NA	NA	NA	0	146	146	184	571.6691804998554	NA	NA	NA	NA	572.2358221001923	572.2358221001923	left	0	3,17822164026439	NA	NA	aae	1	2026-06-01_20h05.20.165	MR	2023.1.0	59.99876408589627	0,521624991088174
mr_images/12_b.png	mr_images/12_b_z_270.png	left	ccw	90	NA	NA	NA	NA	0	9	9	67	430.0722539001145	NA	NA	NA	NA	430.6054104999639	430.6054104999639	left	1	5,13706300730701	NA	NA	aae	1	2026-06-01_20h05.20.165	MR	2023.1.0	59.99876408589627	0,809924133005552
mr_images/7_b.png	mr_images/7_b_z_45.png	left	cw	45	NA	NA	NA	NA	0	122	122	181	363.56900369981304	NA	NA	NA	NA	364.09795500012115	364.09795500012115	right	0	3,89700573778828	NA	NA	aae	1	2026-06-01_20h05.20.165	MR	2023.1.0	59.99876408589627	0,35199529340025
mr_images/3_a.png	mr_images/3_a_z_315.png	left	ccw	45	NA	NA	NA	NA	0	74	74	75	604.8646860998124	NA	NA	NA	NA	605.4312371998094	605.4312371998094	right	0	4,64792540043708	NA	NA	aae	1	2026-06-01_20h05.20.165	MR	2023.1.0	59.99876408589627	0,865016973228194
mr_images/7_b.png	mr_images/7_b_z_90.png	left	cw	90	NA	NA	NA	NA	0	114	114	185	848.947405199986	NA	NA	NA	NA	849.4806591998786	849.4806591998786	right	0	3,54854598714155	NA	NA	aae	1	2026-06-01_20h05.20.165	MR	2023.1.0	59.99876408589627	0,576321741915308
mr_images/5_b.png	mr_images/5_b_z_135.png	left	cw	135	NA	NA	NA	NA	0	150	150	141	677.3579506999813	NA	NA	NA	NA	NA	677.8878274997696	right	1	3,47006177037838	NA	NA	aae	1	2026-06-01_20h05.20.165	MR	2023.1.0	59.99876408589627	0,907517959247343
mr_images/1_b.png	mr_images/1_b_z_90.png	left	cw	90	NA	NA	NA	NA	0	119	119	17	518.0266299000941	NA	NA	NA	NA	518.5932244998403	518.5932244998403	right	0	2,68423840342439	NA	NA	aae	1	2026-06-01_20h05.20.165	MR	2023.1.0	59.99876408589627	0,742569738416933
mr_images/1_a.png	mr_images/1_b_z_225.png	right	ccw	135	NA	NA	NA	NA	0	43	43	10	157.94329189974815	NA	NA	NA	NA	158.50990599999204	158.50990599999204	left	1	3,45254047345953	NA	NA	aae	1	2026-06-01_20h05.20.165	MR	2023.1.0	59.99876408589627	0,272862072917633
mr_images/7_b.png	mr_images/7_a_z_45.png	right	cw	45	NA	NA	NA	NA	0	209	209	180	484.7188198999502	NA	NA	NA	NA	485.26569889998063	485.26569889998063	left	0	3,50083501418703	NA	NA	aae	1	2026-06-01_20h05.20.165	MR	2023.1.0	59.99876408589627	0,22243055945728
mr_images/6_a.png	mr_images/6_b_z_315.png	right	ccw	45	NA	NA	NA	NA	0	212	212	146	675.1382244997658	NA	NA	NA	NA	675.6714408998378	675.6714408998378	left	0	1,70536154156434	NA	NA	aae	1	2026-06-01_20h05.20.165	MR	2023.1.0	59.99876408589627	0,890802268288098
mr_images/4_a.png	mr_images/4_a_z_225.png	left	ccw	135	NA	NA	NA	NA	0	23	23	107	101.70101319998504	NA	NA	NA	NA	NA	102.21776100015268	left	1	2,21926231929683	NA	NA	aae	1	2026-06-01_20h05.20.165	MR	2023.1.0	59.99876408589627	0,848271156777628
mr_images/1_b.png	mr_images/1_a_z_315.png	right	ccw	45	NA	NA	NA	NA	0	140	140	14	488.7474214001559	NA	NA	NA	NA	489.29729969985783	489.29729969985783	left	0	4,1089019390929	NA	NA	aae	1	2026-06-01_20h05.20.165	MR	2023.1.0	59.99876408589627	0,55273836303968
mr_images/11_b.png	mr_images/11_b_z_225.png	left	ccw	135	NA	NA	NA	NA	0	198	198	47	167.02531719999388	NA	NA	NA	NA	NA	167.59187150001526	right	0	3,87225100185605	NA	NA	aae	1	2026-06-01_20h05.20.165	MR	2023.1.0	59.99876408589627	0,932376843993552
mr_images/11_b.png	mr_images/11_a_z_45.png	right	cw	45	NA	NA	NA	NA	0	128	128	36	435.1049448000267	NA	NA	NA	NA	435.67149269999936	435.67149269999936	left	0	3,18355674037593	NA	NA	aae	1	2026-06-01_20h05.20.165	MR	2023.1.0	59.99876408589627	0,493253491469659
mr_images/12_b.png	mr_images/12_b_z_90.png	left	cw	90	NA	NA	NA	NA	0	40	40	65	343.9674717998132	NA	NA	NA	NA	344.5006761001423	344.5006761001423	left	1	4,40840010074317	NA	NA	aae	1	2026-06-01_20h05.20.165	MR	2023.1.0	59.99876408589627	0,111071436782368
mr_images/1_b.png	mr_images/1_a_z_270.png	right	ccw	90	NA	NA	NA	NA	0	80	80	18	310.3554698000662	NA	NA	NA	NA	310.89220630005	310.89220630005	left	0	2,05486797346384	NA	NA	aae	1	2026-06-01_20h05.20.165	MR	2023.1.0	59.99876408589627	0,0928733776090667
mr_images/6_a.png	mr_images/6_b_z_270.png	right	ccw	90	NA	NA	NA	NA	0	64	64	150	135.89648489980027	NA	NA	NA	NA	136.47963789990172	136.47963789990172	left	0	3,0224312384089	NA	NA	aae	1	2026-06-01_20h05.20.165	MR	2023.1.0	59.99876408589627	0,00191861006896943
mr_images/3_b.png	mr_images/3_b_z_135.png	left	cw	135	NA	NA	NA	NA	0	141	141	93	424.5562935001217	NA	NA	NA	NA	425.12312529981136	425.12312529981136	right	0	1,6501177198661	NA	NA	aae	1	2026-06-01_20h05.20.165	MR	2023.1.0	59.99876408589627	0,989235822926275
mr_images/6_a.png	mr_images/6_b_z_45.png	right	cw	45	NA	NA	NA	NA	0	85	85	144	588.8002073001117	NA	NA	NA	NA	589.3334451001137	589.3334451001137	left	0	3,69372168366681	NA	NA	aae	1	2026-06-01_20h05.20.165	MR	2023.1.0	59.99876408589627	0,366189515334554
mr_images/11_b.png	mr_images/11_a_z_270.png	right	ccw	90	NA	NA	NA	NA	0	34	34	42	472.0663978997618	NA	NA	NA	NA	472.5995722999796	472.5995722999796	left	0	4,14390486475895	NA	NA	aae	1	2026-06-01_20h05.20.165	MR	2023.1.0	59.99876408589627	0,61345130216796
mr_images/11_b.png	mr_images/11_b_z_315.png	left	ccw	45	NA	NA	NA	NA	0	205	205	39	786.7727280999534	NA	NA	NA	NA	787.3059072000906	787.3059072000906	left	1	4,1974767127249	NA	NA	aae	1	2026-06-01_20h05.20.165	MR	2023.1.0	59.99876408589627	0,133000097353943
mr_images/9_b.png	mr_images/9_b_z_270.png	left	ccw	90	NA	NA	NA	NA	0	19	19	211	192.7094168998301	NA	NA	NA	NA	193.260987599846	193.260987599846	right	0	3,98008623285569	NA	NA	aae	1	2026-06-01_20h05.20.165	MR	2023.1.0	59.99876408589627	0,378805905464105
mr_images/6_b.png	mr_images/6_a_z_270.png	right	ccw	90	NA	NA	NA	NA	0	66	66	162	731.1470535001718	NA	NA	NA	NA	731.7136687999591	731.7136687999591	left	0	2,83777426477172	NA	NA	aae	1	2026-06-01_20h05.20.165	MR	2023.1.0	59.99876408589627	0,963508485932834
mr_images/11_a.png	mr_images/11_b_z_45.png	right	cw	45	NA	NA	NA	NA	0	164	164	24	581.205498999916	NA	NA	NA	NA	581.7343871998601	581.7343871998601	left	1	4,05893384249066	NA	NA	aae	1	2026-06-01_20h05.20.165	MR	2023.1.0	59.99876408589627	0,834478811942972
mr_images/7_b.png	mr_images/7_b_z_315.png	left	ccw	45	NA	NA	NA	NA	0	58	58	183	212.41904739988968	NA	NA	NA	NA	212.98574719997123	212.98574719997123	right	0	3,27044449283858	NA	NA	aae	1	2026-06-01_20h05.20.165	MR	2023.1.0	59.99876408589627	0,838363033835776
mr_images/4_a.png	mr_images/4_a_z_45.png	left	cw	45	NA	NA	NA	NA	0	199	199	97	718.5821519000456	NA	NA	NA	NA	719.1153147998266	719.1153147998266	right	0	4,09154521263554	NA	NA	aae	1	2026-06-01_20h05.20.165	MR	2023.1.0	59.99876408589627	0,851202618679963
mr_images/4_a.png	mr_images/4_b_z_45.png	right	cw	45	NA	NA	NA	NA	0	162	162	96	498.4126976998523	NA	NA	NA	NA	498.9477018998005	498.9477018998005	right	1	3,42556827006047	NA	NA	aae	1	2026-06-01_20h05.20.165	MR	2023.1.0	59.99876408589627	0,0336398399667814
mr_images/7_b.png	mr_images/7_b_z_270.png	left	ccw	90	NA	NA	NA	NA	0	91	91	187	258.1669525001198	NA	NA	NA	NA	258.7294327998534	258.7294327998534	right	0	2,99155394724221	NA	NA	aae	1	2026-06-01_20h05.20.165	MR	2023.1.0	59.99876408589627	0,633781823213212
mr_images/4_b.png	mr_images/4_b_z_135.png	left	cw	135	NA	NA	NA	NA	0	45	45	117	457.01863110018894	NA	NA	NA	NA	457.58508310001343	457.58508310001343	right	1	3,78397684972151	NA	NA	aae	1	2026-06-01_20h05.20.165	MR	2023.1.0	59.99876408589627	0,286180056049489
mr_images/3_b.png	mr_images/3_b_z_270.png	left	ccw	90	NA	NA	NA	NA	0	83	83	91	249.69719070009887	NA	NA	NA	NA	250.26390059990808	250.26390059990808	right	0	3,9872781294689	NA	NA	aae	1	2026-06-01_20h05.20.165	MR	2023.1.0	59.99876408589627	0,42437605781015
mr_images/3_a.png	mr_images/3_b_z_270.png	right	ccw	90	NA	NA	NA	NA	0	172	172	78	649.4585568001494	NA	NA	NA	NA	649.9916465999559	649.9916465999559	left	0	2,88630657616886	NA	NA	aae	1	2026-06-01_20h05.20.165	MR	2023.1.0	59.99876408589627	0,345228045596741
mr_images/12_a.png	mr_images/12_b_z_90.png	right	cw	90	NA	NA	NA	NA	0	79	79	52	185.28954839985815	NA	NA	NA	NA	185.8418422001414	185.8418422001414	right	1	3,89413990286994	NA	NA	aae	1	2026-06-01_20h05.20.165	MR	2023.1.0	59.99876408589627	0,646180037991144
mr_images/1_a.png	mr_images/1_b_z_135.png	right	cw	135	NA	NA	NA	NA	0	37	37	8	840.9317640000954	NA	NA	NA	NA	841.4665490998887	841.4665490998887	left	0	2,57093751602224	NA	NA	aae	1	2026-06-01_20h05.20.165	MR	2023.1.0	59.99876408589627	0,287025774712674
mr_images/5_b.png	mr_images/5_b_z_45.png	left	cw	45	NA	NA	NA	NA	0	57	57	133	613.94662769977	NA	NA	NA	NA	614.4798599998467	614.4798599998467	None	0	0,139439387858147	NA	NA	aae	1	2026-06-01_20h05.20.165	MR	2023.1.0	59.99876408589627	0,662074134568684
mr_images/11_a.png	mr_images/11_b_z_135.png	right	cw	135	NA	NA	NA	NA	0	145	145	32	479.48201610008255	NA	NA	NA	NA	480.03841640008613	480.03841640008613	left	1	2,30048178517609	NA	NA	aae	1	2026-06-01_20h05.20.165	MR	2023.1.0	59.99876408589627	0,194143247441389
mr_images/12_a.png	mr_images/12_b_z_270.png	right	ccw	90	NA	NA	NA	NA	0	31	31	54	358.2821884001605	NA	NA	NA	NA	358.8335012998432	358.8335012998432	left	0	2,55241608366487	NA	NA	aae	1	2026-06-01_20h05.20.165	MR	2023.1.0	59.99876408589627	0,530585863976739
mr_images/4_b.png	mr_images/4_a_z_90.png	right	cw	90	NA	NA	NA	NA	0	56	56	112	621.5122615001164	NA	NA	NA	NA	622.078897499945	622.078897499945	left	1	3,84858267332311	NA	NA	aae	1	2026-06-01_20h05.20.165	MR	2023.1.0	59.99876408589627	0,678046133252792
mr_images/11_b.png	mr_images/11_b_z_135.png	left	cw	135	NA	NA	NA	NA	0	126	126	45	667.1726150000468	NA	NA	NA	NA	667.7060062000528	667.7060062000528	right	0	4,55652640733752	NA	NA	aae	1	2026-06-01_20h05.20.165	MR	2023.1.0	59.99876408589627	0,208901617559604
mr_images/9_a.png	mr_images/9_b_z_225.png	right	ccw	135	NA	NA	NA	NA	0	55	55	202	521.1595235997811	NA	NA	NA	NA	521.7261089999229	521.7261089999229	left	0	4,58837045237306	NA	NA	aae	1	2026-06-01_20h05.20.165	MR	2023.1.0	59.99876408589627	0,16515766188968
mr_images/7_b.png	mr_images/7_a_z_315.png	right	ccw	45	NA	NA	NA	NA	0	153	153	182	764.7590668997727	NA	NA	NA	NA	765.2923412001692	765.2923412001692	left	1	3,19449800110305	NA	NA	aae	1	2026-06-01_20h05.20.165	MR	2023.1.0	59.99876408589627	0,750898241647519
mr_images/11_a.png	mr_images/11_b_z_225.png	right	ccw	135	NA	NA	NA	NA	0	200	200	34	273.210648200009	NA	NA	NA	NA	273.7438647998497	273.7438647998497	left	1	3,73063778723008	NA	NA	aae	1	2026-06-01_20h05.20.165	MR	2023.1.0	59.99876408589627	0,0352235055761412
mr_images/11_a.png	mr_images/11_a_z_45.png	left	cw	45	NA	NA	NA	NA	0	161	161	25	671.6720471000299	NA	NA	NA	NA	672.205200899858	672.205200899858	right	1	2,95136523383553	NA	NA	aae	1	2026-06-01_20h05.20.165	MR	2023.1.0	59.99876408589627	0,649238115525805
mr_images/11_b.png	mr_images/11_b_z_270.png	left	ccw	90	NA	NA	NA	NA	0	97	97	43	812.4191181999631	NA	NA	NA	NA	812.9524070001207	812.9524070001207	left	1	4,46776743789087	NA	NA	aae	1	2026-06-01_20h05.20.165	MR	2023.1.0	59.99876408589627	0,551574779325165
mr_images/12_b.png	mr_images/12_a_z_45.png	right	cw	45	NA	NA	NA	NA	0	96	96	60	372.0470559997484	NA	NA	NA	NA	372.61346009979025	372.61346009979025	left	0	4,59905510538375	NA	NA	aae	1	2026-06-01_20h05.20.165	MR	2023.1.0	59.99876408589627	0,984135261853226
mr_images/9_a.png	mr_images/9_b_z_270.png	right	ccw	90	NA	NA	NA	NA	0	190	190	198	550.7220862000249	NA	NA	NA	NA	551.255289199762	551.255289199762	left	0	3,50283718059654	NA	NA	aae	1	2026-06-01_20h05.20.165	MR	2023.1.0	59.99876408589627	0,0950346748577431
NA	NA	NA	NA	NA	NA	NA	NA	NA	NA	NA	NA	NA	NA	NA	NA	NA	NA	NA	NA	NA	NA	NA	861.8289839001372	863.8287098999135	NA	NA	NA	NA	NA	NA	NA
