sequence	training_session.thisRepN	training_session.thisTrialN	training_session.thisN	training_session.thisIndex	training_2n.thisRepN	training_2n.thisTrialN	training_2n.thisN	training_2n.thisIndex	training_3n.thisRepN	training_3n.thisTrialN	training_3n.thisN	training_3n.thisIndex	training_4n.thisRepN	training_4n.thisTrialN	training_4n.thisN	training_4n.thisIndex	allrep_2nback.thisRepN	allrep_2nback.thisTrialN	allrep_2nback.thisN	allrep_2nback.thisIndex	trials_2nback.thisRepN	trials_2nback.thisTrialN	trials_2nback.thisN	trials_2nback.thisIndex	allrep_3nback.thisRepN	allrep_3nback.thisTrialN	allrep_3nback.thisN	allrep_3nback.thisIndex	trials_3nback.thisRepN	trials_3nback.thisTrialN	trials_3nback.thisN	trials_3nback.thisIndex	allrep_4nback.thisRepN	allrep_4nback.thisTrialN	allrep_4nback.thisN	allrep_4nback.thisIndex	trials_4nback.thisRepN	trials_4nback.thisTrialN	trials_4nback.thisN	trials_4nback.thisIndex	buffer02_txt.started	test_griddot_resp2.started	test_griddot_resp2.keys	test_griddot_resp2.rt	buffer23_txt.started	test_griddot_resp3.started	test_griddot_resp3.keys	buffer34_txt.started	test_griddot_resp4.started	test_griddot_resp4.keys	confirm_resp.started	confirm_resp.keys	confirm_resp.rt	instr_text_2.started	buffer02_txt.stopped	griddot_resp2.started	griddot_resp2.keys	griddot_resp2.rt	griddot_resp3.started	griddot_resp3.keys	griddot_resp3.rt	griddot_resp4.started	griddot_resp4.keys	griddot_resp4.rt	participant	session	date	expName	psychopyVersion	frameRate
[(1, 2), (2, 0), (2, 2), (2, 0), (0, 1), (1, 0), (0, 1), (2, 2)]	0	0	0	0	0	0	0	687	NA	NA	NA	NA	NA	NA	NA	NA	NA	NA	NA	NA	NA	NA	NA	NA	NA	NA	NA	NA	NA	NA	NA	NA	NA	NA	NA	NA	NA	NA	NA	NA	51.4350057002157	55.53481310000643	['left', 'left']	[4.535742299631238, 6.85327610000968]	NA	NA	NA	NA	NA	NA	NA	NA	NA	NA	NA	NA	NA	NA	NA	NA	NA	NA	NA	NA	aae	1	2026-06-01_11h19.32.98	SS	2023.1.0	59.16421076384735
[(1, 1), (1, 2), (1, 1), (0, 2), (1, 1), (1, 2), (1, 0), (1, 0)]	0	0	0	0	0	1	1	495	NA	NA	NA	NA	NA	NA	NA	NA	NA	NA	NA	NA	NA	NA	NA	NA	NA	NA	NA	NA	NA	NA	NA	NA	NA	NA	NA	NA	NA	NA	NA	NA	NA	72.53256910014898	None	NA	NA	NA	NA	NA	NA	NA	NA	NA	NA	NA	NA	NA	NA	NA	NA	NA	NA	NA	NA	NA	aae	1	2026-06-01_11h19.32.98	SS	2023.1.0	59.16421076384735
[(2, 0), (1, 2), (2, 0), (1, 1), (2, 0), (2, 2), (0, 1), (1, 2)]	0	0	0	0	0	2	2	525	NA	NA	NA	NA	NA	NA	NA	NA	NA	NA	NA	NA	NA	NA	NA	NA	NA	NA	NA	NA	NA	NA	NA	NA	NA	NA	NA	NA	NA	NA	NA	NA	NA	89.49875820009038	None	NA	NA	NA	NA	NA	NA	NA	NA	NA	NA	NA	NA	NA	NA	NA	NA	NA	NA	NA	NA	NA	aae	1	2026-06-01_11h19.32.98	SS	2023.1.0	59.16421076384735
[(1, 2), (1, 1), (1, 1), (2, 1), (1, 1), (2, 0), (2, 1), (2, 2), (2, 2)]	0	0	0	0	NA	NA	NA	NA	0	0	0	394	NA	NA	NA	NA	NA	NA	NA	NA	NA	NA	NA	NA	NA	NA	NA	NA	NA	NA	NA	NA	NA	NA	NA	NA	NA	NA	NA	NA	NA	NA	NA	NA	106.43127490021288	110.49418359994888	None	NA	NA	NA	NA	NA	NA	NA	NA	NA	NA	NA	NA	NA	NA	NA	NA	NA	aae	1	2026-06-01_11h19.32.98	SS	2023.1.0	59.16421076384735
[(2, 2), (2, 1), (2, 1), (1, 0), (0, 2), (0, 2), (2, 0), (0, 2), (0, 2)]	0	0	0	0	NA	NA	NA	NA	0	1	1	421	NA	NA	NA	NA	NA	NA	NA	NA	NA	NA	NA	NA	NA	NA	NA	NA	NA	NA	NA	NA	NA	NA	NA	NA	NA	NA	NA	NA	NA	NA	NA	NA	NA	129.51009540027007	None	NA	NA	NA	NA	NA	NA	NA	NA	NA	NA	NA	NA	NA	NA	NA	NA	NA	aae	1	2026-06-01_11h19.32.98	SS	2023.1.0	59.16421076384735
[(0, 2), (2, 1), (0, 1), (2, 2), (2, 1), (1, 2), (1, 0), (2, 1), (2, 2)]	0	0	0	0	NA	NA	NA	NA	0	2	2	528	NA	NA	NA	NA	NA	NA	NA	NA	NA	NA	NA	NA	NA	NA	NA	NA	NA	NA	NA	NA	NA	NA	NA	NA	NA	NA	NA	NA	NA	NA	NA	NA	NA	148.45600550016388	None	NA	NA	NA	NA	NA	NA	NA	NA	NA	NA	NA	NA	NA	NA	NA	NA	NA	aae	1	2026-06-01_11h19.32.98	SS	2023.1.0	59.16421076384735
[(2, 2), (2, 2), (1, 1), (2, 1), (2, 2), (2, 2), (1, 2), (0, 1), (2, 1), (1, 0)]	0	0	0	0	NA	NA	NA	NA	NA	NA	NA	NA	0	0	0	426	NA	NA	NA	NA	NA	NA	NA	NA	NA	NA	NA	NA	NA	NA	NA	NA	NA	NA	NA	NA	NA	NA	NA	NA	NA	NA	NA	NA	NA	NA	NA	167.43851670017466	171.50478560011834	None	NA	NA	NA	NA	NA	NA	NA	NA	NA	NA	NA	NA	NA	NA	aae	1	2026-06-01_11h19.32.98	SS	2023.1.0	59.16421076384735
[(1, 2), (2, 2), (2, 1), (0, 1), (1, 2), (1, 1), (0, 2), (0, 0), (1, 2), (2, 1)]	0	0	0	0	NA	NA	NA	NA	NA	NA	NA	NA	0	1	1	403	NA	NA	NA	NA	NA	NA	NA	NA	NA	NA	NA	NA	NA	NA	NA	NA	NA	NA	NA	NA	NA	NA	NA	NA	NA	NA	NA	NA	NA	NA	NA	NA	192.51748500019312	None	NA	NA	NA	NA	NA	NA	NA	NA	NA	NA	NA	NA	NA	NA	aae	1	2026-06-01_11h19.32.98	SS	2023.1.0	59.16421076384735
[(1, 0), (1, 1), (0, 2), (1, 2), (1, 0), (2, 1), (2, 0), (0, 1), (1, 0), (0, 0)]	0	0	0	0	NA	NA	NA	NA	NA	NA	NA	NA	0	2	2	560	NA	NA	NA	NA	NA	NA	NA	NA	NA	NA	NA	NA	NA	NA	NA	NA	NA	NA	NA	NA	NA	NA	NA	NA	NA	NA	NA	NA	NA	NA	NA	NA	213.47977600013837	None	NA	NA	NA	NA	NA	NA	NA	NA	NA	NA	NA	NA	NA	NA	aae	1	2026-06-01_11h19.32.98	SS	2023.1.0	59.16421076384735
NA	0	0	0	0	NA	NA	NA	NA	NA	NA	NA	NA	NA	NA	NA	NA	NA	NA	NA	NA	NA	NA	NA	NA	NA	NA	NA	NA	NA	NA	NA	NA	NA	NA	NA	NA	NA	NA	NA	NA	NA	NA	NA	NA	NA	NA	NA	NA	NA	NA	233.42583870003	y	6.584214899688959	NA	NA	NA	NA	NA	NA	NA	NA	NA	NA	NA	aae	1	2026-06-01_11h19.32.98	SS	2023.1.0	59.16421076384735
[(1, 0), (1, 0), (1, 0), (2, 0), (1, 1), (2, 0), (1, 1), (2, 0)]	NA	NA	NA	NA	NA	NA	NA	NA	NA	NA	NA	NA	NA	NA	NA	NA	0	0	0	0	0	0	0	255	NA	NA	NA	NA	NA	NA	NA	NA	NA	NA	NA	NA	NA	NA	NA	NA	NA	NA	NA	NA	NA	NA	NA	NA	NA	NA	NA	NA	NA	NA	NA	265.9382353001274	['right', 'left', 'left', 'right', 'right', 'right']	[5.059959499631077, 6.646261699963361, 8.541945099830627, 10.420493199955672, 12.507518499623984, 14.657859299797565]	NA	NA	NA	NA	NA	NA	aae	1	2026-06-01_11h19.32.98	SS	2023.1.0	59.16421076384735
[(1, 0), (2, 2), (2, 2), (0, 1), (2, 2), (0, 2), (2, 1), (0, 2)]	NA	NA	NA	NA	NA	NA	NA	NA	NA	NA	NA	NA	NA	NA	NA	NA	0	0	0	0	0	1	1	189	NA	NA	NA	NA	NA	NA	NA	NA	NA	NA	NA	NA	NA	NA	NA	NA	NA	NA	NA	NA	NA	NA	NA	NA	NA	NA	NA	NA	NA	NA	NA	333.9469540002756	['left', 'left', 'right', 'left', 'left', 'right']	[4.536473999731243, 6.464347999542952, 8.337604799773544, 10.612096099648625, 12.843764099758118, 14.601546499878168]	NA	NA	NA	NA	NA	NA	aae	1	2026-06-01_11h19.32.98	SS	2023.1.0	59.16421076384735
[(1, 2), (1, 2), (1, 2), (0, 1), (0, 1), (0, 2), (0, 1), (0, 2)]	NA	NA	NA	NA	NA	NA	NA	NA	NA	NA	NA	NA	NA	NA	NA	NA	0	0	0	0	0	2	2	519	NA	NA	NA	NA	NA	NA	NA	NA	NA	NA	NA	NA	NA	NA	NA	NA	NA	NA	NA	NA	NA	NA	NA	NA	NA	NA	NA	NA	NA	NA	NA	282.9527778001502	['left', 'left', 'right', 'left', 'right', 'left']	[4.600258299615234, 6.566995199769735, 8.729596699588, 10.88209699979052, 12.501102399546653, 14.666510799899697]	NA	NA	NA	NA	NA	NA	aae	1	2026-06-01_11h19.32.98	SS	2023.1.0	59.16421076384735
[(2, 0), (0, 1), (2, 2), (2, 0), (1, 1), (2, 1), (1, 1), (2, 1)]	NA	NA	NA	NA	NA	NA	NA	NA	NA	NA	NA	NA	NA	NA	NA	NA	0	0	0	0	0	3	3	416	NA	NA	NA	NA	NA	NA	NA	NA	NA	NA	NA	NA	NA	NA	NA	NA	244.8784468001686	NA	NA	NA	NA	NA	NA	NA	NA	NA	NA	NA	NA	240.0299843000248	247.95759329991415	248.94185629999265	['left', 'right', 'left', 'left', 'right', 'left']	[4.602135099470615, 6.6990786995738745, 8.64261919958517, 10.51565059972927, 12.583467999473214, 14.486913199536502]	NA	NA	NA	NA	NA	NA	aae	1	2026-06-01_11h19.32.98	SS	2023.1.0	59.16421076384735
[(2, 0), (1, 0), (0, 1), (0, 1), (0, 0), (0, 1), (0, 0), (0, 0)]	NA	NA	NA	NA	NA	NA	NA	NA	NA	NA	NA	NA	NA	NA	NA	NA	0	0	0	0	0	4	4	412	NA	NA	NA	NA	NA	NA	NA	NA	NA	NA	NA	NA	NA	NA	NA	NA	NA	NA	NA	NA	NA	NA	NA	NA	NA	NA	NA	NA	NA	NA	NA	316.9313668999821	['left', 'left', 'left', 'right', 'right', 'left']	[4.87970419973135, 6.551655799616128, 8.559991599991918, 10.498137299902737, 12.519159199669957, 14.695741399656981]	NA	NA	NA	NA	NA	NA	aae	1	2026-06-01_11h19.32.98	SS	2023.1.0	59.16421076384735
[(2, 0), (1, 2), (2, 1), (1, 2), (2, 1), (1, 2), (2, 1), (1, 1)]	NA	NA	NA	NA	NA	NA	NA	NA	NA	NA	NA	NA	NA	NA	NA	NA	0	0	0	0	0	5	5	640	NA	NA	NA	NA	NA	NA	NA	NA	NA	NA	NA	NA	NA	NA	NA	NA	NA	NA	NA	NA	NA	NA	NA	NA	NA	NA	NA	NA	NA	NA	NA	299.9326843000017	['left', 'left', 'right', 'right', 'right', 'left']	[4.619810799602419, 6.633014899678528, 8.703722299542278, 10.685104299802333, 12.666790899820626, 14.688967099878937]	NA	NA	NA	NA	NA	NA	aae	1	2026-06-01_11h19.32.98	SS	2023.1.0	59.16421076384735
NA	NA	NA	NA	NA	NA	NA	NA	NA	NA	NA	NA	NA	NA	NA	NA	NA	0	0	0	0	NA	NA	NA	NA	NA	NA	NA	NA	NA	NA	NA	NA	NA	NA	NA	NA	NA	NA	NA	NA	NA	NA	NA	NA	NA	NA	NA	NA	NA	NA	NA	NA	NA	NA	NA	NA	NA	NA	NA	NA	NA	NA	NA	NA	aae	1	2026-06-01_11h19.32.98	SS	2023.1.0	59.16421076384735
[(2, 2), (2, 0), (2, 2), (0, 0), (2, 2), (2, 2), (0, 2), (2, 1)]	NA	NA	NA	NA	NA	NA	NA	NA	NA	NA	NA	NA	NA	NA	NA	NA	1	0	1	0	0	0	0	461	NA	NA	NA	NA	NA	NA	NA	NA	NA	NA	NA	NA	NA	NA	NA	NA	NA	NA	NA	NA	NA	NA	NA	NA	NA	NA	NA	NA	NA	NA	NA	352.57680559996516	['left', 'left', 'left', 'left', 'left', 'left']	[4.850490599870682, 6.485382799990475, 9.459211899898946, 11.313545599579811, 13.243046499788761, 14.740215399768203]	NA	NA	NA	NA	NA	NA	aae	1	2026-06-01_11h19.32.98	SS	2023.1.0	59.16421076384735
[(0, 1), (1, 1), (2, 2), (2, 0), (0, 1), (2, 0), (0, 1), (2, 1)]	NA	NA	NA	NA	NA	NA	NA	NA	NA	NA	NA	NA	NA	NA	NA	NA	1	0	1	0	0	1	1	314	NA	NA	NA	NA	NA	NA	NA	NA	NA	NA	NA	NA	NA	NA	NA	NA	NA	NA	NA	NA	NA	NA	NA	NA	NA	NA	NA	NA	NA	NA	NA	369.524073000066	['left', 'left', 'right', 'left', 'right', 'left', 'left']	[4.850973199587315, 6.726298899389803, 9.083652099594474, 10.620028299745172, 12.752473199740052, 14.578754799440503]	NA	NA	NA	NA	NA	NA	aae	1	2026-06-01_11h19.32.98	SS	2023.1.0	59.16421076384735
[(0, 1), (1, 1), (2, 1), (1, 1), (2, 1), (2, 1), (1, 2), (0, 2)]	NA	NA	NA	NA	NA	NA	NA	NA	NA	NA	NA	NA	NA	NA	NA	NA	1	0	1	0	0	2	2	611	NA	NA	NA	NA	NA	NA	NA	NA	NA	NA	NA	NA	NA	NA	NA	NA	NA	NA	NA	NA	NA	NA	NA	NA	NA	NA	NA	NA	NA	NA	NA	386.53868489991874	['left', 'right', 'right', 'left', 'left', 'left']	[4.634433199651539, 6.5809444999322295, 8.404489599633962, 10.654735199641436, 12.648949899710715, 14.577302099671215]	NA	NA	NA	NA	NA	NA	aae	1	2026-06-01_11h19.32.98	SS	2023.1.0	59.16421076384735
[(0, 0), (1, 1), (1, 0), (1, 1), (2, 1), (1, 1), (1, 1), (2, 2)]	NA	NA	NA	NA	NA	NA	NA	NA	NA	NA	NA	NA	NA	NA	NA	NA	1	0	1	0	0	3	3	200	NA	NA	NA	NA	NA	NA	NA	NA	NA	NA	NA	NA	NA	NA	NA	NA	NA	NA	NA	NA	NA	NA	NA	NA	NA	NA	NA	NA	NA	NA	NA	403.55436840001494	['left', 'left', 'right', 'left', 'right', 'left', 'left']	[2.5047301999293268, 4.633792699780315, 6.774333800189197, 8.75247470010072, 10.615924399811774, 12.777936500031501, 14.723834699951112]	NA	NA	NA	NA	NA	NA	aae	1	2026-06-01_11h19.32.98	SS	2023.1.0	59.16421076384735
[(2, 1), (2, 2), (2, 2), (2, 2), (0, 1), (1, 1), (0, 1), (1, 2)]	NA	NA	NA	NA	NA	NA	NA	NA	NA	NA	NA	NA	NA	NA	NA	NA	1	0	1	0	0	4	4	427	NA	NA	NA	NA	NA	NA	NA	NA	NA	NA	NA	NA	NA	NA	NA	NA	NA	NA	NA	NA	NA	NA	NA	NA	NA	NA	NA	NA	NA	NA	NA	420.5169358998537	['left', 'right', 'left', 'left', 'right', 'left']	[4.572520099580288, 6.814502699766308, 8.612741799559444, 10.64590029977262, 13.098865199368447, 14.802813399583101]	NA	NA	NA	NA	NA	NA	aae	1	2026-06-01_11h19.32.98	SS	2023.1.0	59.16421076384735
[(2, 0), (0, 0), (0, 2), (2, 0), (0, 2), (2, 0), (1, 1), (1, 0)]	NA	NA	NA	NA	NA	NA	NA	NA	NA	NA	NA	NA	NA	NA	NA	NA	1	0	1	0	0	5	5	168	NA	NA	NA	NA	NA	NA	NA	NA	NA	NA	NA	NA	NA	NA	NA	NA	NA	NA	NA	NA	NA	NA	NA	NA	NA	NA	NA	NA	NA	NA	NA	437.5165658998303	['left', 'left', 'right', 'right', 'left', 'left']	[4.638934099581093, 6.896814599633217, 8.64834909979254, 10.566856199409813, 12.436690999660641, 14.609090999700129]	NA	NA	NA	NA	NA	NA	aae	1	2026-06-01_11h19.32.98	SS	2023.1.0	59.16421076384735
NA	NA	NA	NA	NA	NA	NA	NA	NA	NA	NA	NA	NA	NA	NA	NA	NA	1	0	1	0	NA	NA	NA	NA	NA	NA	NA	NA	NA	NA	NA	NA	NA	NA	NA	NA	NA	NA	NA	NA	NA	NA	NA	NA	NA	NA	NA	NA	NA	NA	NA	NA	NA	NA	NA	NA	NA	NA	NA	NA	NA	NA	NA	NA	aae	1	2026-06-01_11h19.32.98	SS	2023.1.0	59.16421076384735
[(2, 0), (0, 1), (2, 1), (0, 2), (1, 1), (2, 1), (1, 2), (0, 2), (2, 1)]	NA	NA	NA	NA	NA	NA	NA	NA	NA	NA	NA	NA	NA	NA	NA	NA	NA	NA	NA	NA	NA	NA	NA	NA	0	0	0	0	0	0	0	261	NA	NA	NA	NA	NA	NA	NA	NA	NA	NA	NA	NA	NA	NA	NA	NA	NA	NA	NA	NA	NA	NA	NA	NA	NA	NA	535.383716000244	['left', 'left', 'right', 'left', 'left', 'right']	[6.544694199692458, 8.456549999769777, 10.36930159991607, 12.550369399599731, 14.640492499805987, 16.519601699896157]	NA	NA	NA	aae	1	2026-06-01_11h19.32.98	SS	2023.1.0	59.16421076384735
[(1, 2), (2, 1), (2, 0), (1, 2), (1, 0), (0, 0), (2, 0), (1, 0), (1, 2)]	NA	NA	NA	NA	NA	NA	NA	NA	NA	NA	NA	NA	NA	NA	NA	NA	NA	NA	NA	NA	NA	NA	NA	NA	0	0	0	0	0	1	1	622	NA	NA	NA	NA	NA	NA	NA	NA	NA	NA	NA	NA	NA	NA	NA	NA	NA	NA	NA	NA	NA	NA	NA	NA	NA	NA	497.38766460027546	['right', 'left', 'left', 'left', 'right', 'left']	[6.794952099677175, 8.746432200074196, 10.503624099772424, 13.329008299857378, 14.61960079986602, 16.663354699965566]	NA	NA	NA	aae	1	2026-06-01_11h19.32.98	SS	2023.1.0	59.16421076384735
[(1, 2), (1, 1), (2, 0), (0, 0), (0, 0), (2, 0), (0, 0), (1, 2), (1, 0)]	NA	NA	NA	NA	NA	NA	NA	NA	NA	NA	NA	NA	NA	NA	NA	NA	NA	NA	NA	NA	NA	NA	NA	NA	0	0	0	0	0	2	2	275	NA	NA	NA	NA	NA	NA	NA	NA	NA	NA	NA	NA	NA	NA	NA	NA	NA	NA	NA	NA	NA	NA	NA	NA	NA	NA	516.3864329000935	['left', 'right', 'right', 'right', 'left', 'left']	[6.5151747995987535, 8.434884599875659, 10.47127449978143, 12.616029899567366, 14.76818609982729, 16.644667599815875]	NA	NA	NA	aae	1	2026-06-01_11h19.32.98	SS	2023.1.0	59.16421076384735
[(1, 0), (1, 0), (0, 0), (1, 0), (0, 0), (0, 1), (2, 2), (0, 0), (2, 1)]	NA	NA	NA	NA	NA	NA	NA	NA	NA	NA	NA	NA	NA	NA	NA	NA	NA	NA	NA	NA	NA	NA	NA	NA	0	0	0	0	0	3	3	554	NA	NA	NA	NA	NA	NA	NA	NA	NA	NA	NA	NA	455.32828859984875	NA	NA	NA	NA	NA	NA	NA	NA	NA	NA	NA	NA	NA	459.3790489998646	['left', 'left', 'left', 'left', 'right', 'left']	[6.645752199459821, 8.947576099541038, 10.701958599500358, 12.578668399713933, 14.96173009974882, 16.76956589985639]	NA	NA	NA	aae	1	2026-06-01_11h19.32.98	SS	2023.1.0	59.16421076384735
[(0, 2), (1, 0), (1, 1), (2, 0), (1, 0), (1, 1), (0, 2), (0, 2), (2, 1)]	NA	NA	NA	NA	NA	NA	NA	NA	NA	NA	NA	NA	NA	NA	NA	NA	NA	NA	NA	NA	NA	NA	NA	NA	0	0	0	0	0	4	4	536	NA	NA	NA	NA	NA	NA	NA	NA	NA	NA	NA	NA	NA	NA	NA	NA	NA	NA	NA	NA	NA	NA	NA	NA	NA	NA	554.3827673001215	['left', 'left', 'right', 'left', 'left', 'left']	[6.53509569959715, 9.14729889947921, 10.520443899556994, 12.60161509970203, 14.522709799464792, 16.627477899659425]	NA	NA	NA	aae	1	2026-06-01_11h19.32.98	SS	2023.1.0	59.16421076384735
[(0, 1), (0, 2), (0, 0), (0, 1), (1, 2), (0, 0), (2, 1), (1, 1), (2, 2)]	NA	NA	NA	NA	NA	NA	NA	NA	NA	NA	NA	NA	NA	NA	NA	NA	NA	NA	NA	NA	NA	NA	NA	NA	0	0	0	0	0	5	5	667	NA	NA	NA	NA	NA	NA	NA	NA	NA	NA	NA	NA	NA	NA	NA	NA	NA	NA	NA	NA	NA	NA	NA	NA	NA	NA	478.3947534002364	['right', 'left', 'right', 'left', 'left', 'left']	[6.621159099973738, 8.530802199617028, 10.687364799901843, 12.604409899562597, 14.62584689958021, 16.549411999993026]	NA	NA	NA	aae	1	2026-06-01_11h19.32.98	SS	2023.1.0	59.16421076384735
NA	NA	NA	NA	NA	NA	NA	NA	NA	NA	NA	NA	NA	NA	NA	NA	NA	NA	NA	NA	NA	NA	NA	NA	NA	0	0	0	0	NA	NA	NA	NA	NA	NA	NA	NA	NA	NA	NA	NA	NA	NA	NA	NA	NA	NA	NA	NA	NA	NA	NA	NA	NA	NA	NA	NA	NA	NA	NA	NA	NA	NA	NA	NA	aae	1	2026-06-01_11h19.32.98	SS	2023.1.0	59.16421076384735
[(1, 2), (2, 1), (2, 2), (2, 1), (1, 2), (1, 1), (2, 1), (1, 2), (0, 1)]	NA	NA	NA	NA	NA	NA	NA	NA	NA	NA	NA	NA	NA	NA	NA	NA	NA	NA	NA	NA	NA	NA	NA	NA	1	0	1	0	0	0	0	498	NA	NA	NA	NA	NA	NA	NA	NA	NA	NA	NA	NA	NA	NA	NA	NA	NA	NA	NA	NA	NA	NA	NA	NA	NA	NA	575.8255655001849	['left', 'left', 'left', 'right', 'right', 'left']	[6.7637777999043465, 8.47418380016461, 10.53630349971354, 12.451999799814075, 14.381117799784988, 16.466446400154382]	NA	NA	NA	aae	1	2026-06-01_11h19.32.98	SS	2023.1.0	59.16421076384735
[(0, 1), (0, 1), (0, 1), (0, 1), (2, 2), (0, 2), (1, 1), (1, 2), (0, 2)]	NA	NA	NA	NA	NA	NA	NA	NA	NA	NA	NA	NA	NA	NA	NA	NA	NA	NA	NA	NA	NA	NA	NA	NA	1	0	1	0	0	1	1	311	NA	NA	NA	NA	NA	NA	NA	NA	NA	NA	NA	NA	NA	NA	NA	NA	NA	NA	NA	NA	NA	NA	NA	NA	NA	NA	594.8091597999446	['right', 'left', 'left', 'left', 'left', 'right']	[7.215053299441934, 8.94277839967981, 10.652319399639964, 12.590143299661577, 14.67685729963705, 16.65915419952944]	NA	NA	NA	aae	1	2026-06-01_11h19.32.98	SS	2023.1.0	59.16421076384735
[(1, 2), (0, 0), (1, 1), (2, 1), (0, 0), (2, 2), (0, 2), (0, 0), (0, 2)]	NA	NA	NA	NA	NA	NA	NA	NA	NA	NA	NA	NA	NA	NA	NA	NA	NA	NA	NA	NA	NA	NA	NA	NA	1	0	1	0	0	2	2	424	NA	NA	NA	NA	NA	NA	NA	NA	NA	NA	NA	NA	NA	NA	NA	NA	NA	NA	NA	NA	NA	NA	NA	NA	NA	NA	613.8407042999752	['left', 'right', 'left', 'left', 'right', 'left']	[6.698177399579436, 8.32654029969126, 10.547331699635834, 12.546375399455428, 14.68445049971342, 17.06609579967335]	NA	NA	NA	aae	1	2026-06-01_11h19.32.98	SS	2023.1.0	59.16421076384735
[(2, 0), (1, 0), (0, 2), (2, 0), (2, 0), (0, 1), (2, 0), (1, 1), (2, 2)]	NA	NA	NA	NA	NA	NA	NA	NA	NA	NA	NA	NA	NA	NA	NA	NA	NA	NA	NA	NA	NA	NA	NA	NA	1	0	1	0	0	3	3	571	NA	NA	NA	NA	NA	NA	NA	NA	NA	NA	NA	NA	NA	NA	NA	NA	NA	NA	NA	NA	NA	NA	NA	NA	NA	NA	632.803790200036	['right', 'left', 'right', 'right', 'left', 'left']	[6.714446799829602, 8.803105799946934, 10.629520100075752, 12.71916119987145, 14.555529799778014, 16.553970700129867]	NA	NA	NA	aae	1	2026-06-01_11h19.32.98	SS	2023.1.0	59.16421076384735
[(0, 0), (1, 0), (0, 0), (0, 1), (1, 0), (0, 0), (1, 1), (0, 2), (2, 0)]	NA	NA	NA	NA	NA	NA	NA	NA	NA	NA	NA	NA	NA	NA	NA	NA	NA	NA	NA	NA	NA	NA	NA	NA	1	0	1	0	0	4	4	136	NA	NA	NA	NA	NA	NA	NA	NA	NA	NA	NA	NA	NA	NA	NA	NA	NA	NA	NA	NA	NA	NA	NA	NA	NA	NA	651.8178539001383	['left', 'right', 'right', 'left', 'left', 'left']	[6.725124000106007, 8.645355599932373, 10.649460699874908, 12.555219999980181, 14.423017299734056, 16.401250400114805]	NA	NA	NA	aae	1	2026-06-01_11h19.32.98	SS	2023.1.0	59.16421076384735
[(0, 2), (0, 0), (1, 2), (1, 2), (2, 2), (1, 1), (1, 2), (0, 1), (1, 1)]	NA	NA	NA	NA	NA	NA	NA	NA	NA	NA	NA	NA	NA	NA	NA	NA	NA	NA	NA	NA	NA	NA	NA	NA	1	0	1	0	0	5	5	503	NA	NA	NA	NA	NA	NA	NA	NA	NA	NA	NA	NA	NA	NA	NA	NA	NA	NA	NA	NA	NA	NA	NA	NA	NA	NA	670.8164645000361	['left', 'left', 'left', 'right', 'left', 'right']	[6.534996199887246, 8.469706799834967, 10.584685899782926, 12.382709799800068, 14.498736899811774, 16.38059539999813]	NA	NA	NA	aae	1	2026-06-01_11h19.32.98	SS	2023.1.0	59.16421076384735
NA	NA	NA	NA	NA	NA	NA	NA	NA	NA	NA	NA	NA	NA	NA	NA	NA	NA	NA	NA	NA	NA	NA	NA	NA	1	0	1	0	NA	NA	NA	NA	NA	NA	NA	NA	NA	NA	NA	NA	NA	NA	NA	NA	NA	NA	NA	NA	NA	NA	NA	NA	NA	NA	NA	NA	NA	NA	NA	NA	NA	NA	NA	NA	aae	1	2026-06-01_11h19.32.98	SS	2023.1.0	59.16421076384735
[(0, 1), (0, 2), (2, 1), (1, 2), (0, 1), (1, 2), (0, 1), (1, 2), (1, 0), (2, 1)]	NA	NA	NA	NA	NA	NA	NA	NA	NA	NA	NA	NA	NA	NA	NA	NA	NA	NA	NA	NA	NA	NA	NA	NA	NA	NA	NA	NA	NA	NA	NA	NA	0	0	0	0	0	0	0	119	NA	NA	NA	NA	NA	NA	NA	NA	NA	NA	NA	NA	NA	NA	NA	NA	NA	NA	NA	NA	NA	799.0804825001396	['right', 'left', 'left', 'left', 'left', 'left']	[9.220780199859291, 10.57982279965654, 13.171405899804085, 15.643704399932176, 17.090196299832314, 19.11179249966517]	aae	1	2026-06-01_11h19.32.98	SS	2023.1.0	59.16421076384735
[(0, 2), (1, 1), (1, 1), (0, 1), (0, 2), (2, 0), (0, 2), (1, 1), (1, 2), (2, 0)]	NA	NA	NA	NA	NA	NA	NA	NA	NA	NA	NA	NA	NA	NA	NA	NA	NA	NA	NA	NA	NA	NA	NA	NA	NA	NA	NA	NA	NA	NA	NA	NA	0	0	0	0	0	1	1	58	NA	NA	NA	NA	NA	NA	NA	690.0456509999931	NA	NA	NA	NA	NA	NA	NA	NA	NA	NA	NA	NA	NA	694.1286495998502	['left', 'left', 'left', 'left', 'left', 'right']	[8.699114099610597, 10.46098619978875, 12.8059185994789, 14.786208699457347, 16.881197499576956, 18.697878499515355]	aae	1	2026-06-01_11h19.32.98	SS	2023.1.0	59.16421076384735
[(0, 2), (2, 1), (1, 2), (1, 1), (0, 1), (1, 0), (1, 2), (0, 2), (0, 2), (1, 0)]	NA	NA	NA	NA	NA	NA	NA	NA	NA	NA	NA	NA	NA	NA	NA	NA	NA	NA	NA	NA	NA	NA	NA	NA	NA	NA	NA	NA	NA	NA	NA	NA	0	0	0	0	0	2	2	15	NA	NA	NA	NA	NA	NA	NA	NA	NA	NA	NA	NA	NA	NA	NA	NA	NA	NA	NA	NA	NA	715.1255586999469	['left', 'left', 'right', 'left', 'left', 'right']	[8.655305799562484, 10.608583399560302, 12.740466399583966, 14.743975199759007, 17.219514299649745, 18.616881299763918]	aae	1	2026-06-01_11h19.32.98	SS	2023.1.0	59.16421076384735
[(2, 0), (0, 2), (2, 0), (0, 0), (1, 2), (0, 2), (2, 0), (2, 1), (0, 0), (0, 2)]	NA	NA	NA	NA	NA	NA	NA	NA	NA	NA	NA	NA	NA	NA	NA	NA	NA	NA	NA	NA	NA	NA	NA	NA	NA	NA	NA	NA	NA	NA	NA	NA	0	0	0	0	0	3	3	354	NA	NA	NA	NA	NA	NA	NA	NA	NA	NA	NA	NA	NA	NA	NA	NA	NA	NA	NA	NA	NA	757.1330408998765	['left', 'right', 'left', 'left', 'left', 'right']	[8.692568099591881, 10.84004779951647, 12.81794839957729, 14.51998689956963, 16.723278999794275, 18.429204099811614]	aae	1	2026-06-01_11h19.32.98	SS	2023.1.0	59.16421076384735
[(2, 0), (1, 0), (0, 1), (2, 1), (1, 2), (0, 0), (0, 1), (0, 0), (0, 2), (0, 0)]	NA	NA	NA	NA	NA	NA	NA	NA	NA	NA	NA	NA	NA	NA	NA	NA	NA	NA	NA	NA	NA	NA	NA	NA	NA	NA	NA	NA	NA	NA	NA	NA	0	0	0	0	0	4	4	467	NA	NA	NA	NA	NA	NA	NA	NA	NA	NA	NA	NA	NA	NA	NA	NA	NA	NA	NA	NA	NA	778.1348318001255	['left', 'left', 'right', 'left', 'left', 'left']	[8.615028299856931, 10.887324299663305, 12.592040699906647, 14.796873499639332, 16.7333762999624, 18.602765299845487]	aae	1	2026-06-01_11h19.32.98	SS	2023.1.0	59.16421076384735
[(2, 2), (1, 0), (1, 0), (2, 1), (1, 0), (1, 0), (2, 1), (1, 2), (1, 0), (1, 2)]	NA	NA	NA	NA	NA	NA	NA	NA	NA	NA	NA	NA	NA	NA	NA	NA	NA	NA	NA	NA	NA	NA	NA	NA	NA	NA	NA	NA	NA	NA	NA	NA	0	0	0	0	0	5	5	289	NA	NA	NA	NA	NA	NA	NA	NA	NA	NA	NA	NA	NA	NA	NA	NA	NA	NA	NA	NA	NA	736.1227020998485	['left', 'right', 'right', 'left', 'right', 'left']	[8.879327400121838, 10.690649999771267, 12.678525499999523, 14.530962700024247, 16.58211029972881, 18.540488599799573]	aae	1	2026-06-01_11h19.32.98	SS	2023.1.0	59.16421076384735
NA	NA	NA	NA	NA	NA	NA	NA	NA	NA	NA	NA	NA	NA	NA	NA	NA	NA	NA	NA	NA	NA	NA	NA	NA	NA	NA	NA	NA	NA	NA	NA	NA	0	0	0	0	NA	NA	NA	NA	NA	NA	NA	NA	NA	NA	NA	NA	NA	NA	NA	NA	NA	NA	NA	NA	NA	NA	NA	NA	NA	NA	NA	NA	aae	1	2026-06-01_11h19.32.98	SS	2023.1.0	59.16421076384735
[(1, 0), (2, 0), (1, 2), (2, 1), (1, 2), (2, 1), (1, 2), (2, 1), (2, 1), (2, 1)]	NA	NA	NA	NA	NA	NA	NA	NA	NA	NA	NA	NA	NA	NA	NA	NA	NA	NA	NA	NA	NA	NA	NA	NA	NA	NA	NA	NA	NA	NA	NA	NA	1	0	1	0	0	0	0	489	NA	NA	NA	NA	NA	NA	NA	NA	NA	NA	NA	NA	NA	NA	NA	NA	NA	NA	NA	NA	NA	822.3291672999039	['left', 'left', 'right', 'left', 'left', 'left']	[9.280690399929881, 11.319540499709547, 13.145109999924898, 15.040640600025654, 17.09662069985643, 18.741389600094408]	aae	1	2026-06-01_11h19.32.98	SS	2023.1.0	59.16421076384735
[(2, 2), (0, 2), (2, 1), (2, 2), (1, 0), (0, 0), (2, 1), (2, 2), (0, 2), (1, 0)]	NA	NA	NA	NA	NA	NA	NA	NA	NA	NA	NA	NA	NA	NA	NA	NA	NA	NA	NA	NA	NA	NA	NA	NA	NA	NA	NA	NA	NA	NA	NA	NA	1	0	1	0	0	1	1	511	NA	NA	NA	NA	NA	NA	NA	NA	NA	NA	NA	NA	NA	NA	NA	NA	NA	NA	NA	NA	NA	843.2899115998298	['left', 'left', 'right', 'left', 'left', 'left']	[8.596734299790114, 10.855007899925113, 12.805083199869841, 14.713348499964923, 16.964785899966955, 18.937323600053787]	aae	1	2026-06-01_11h19.32.98	SS	2023.1.0	59.16421076384735
[(0, 2), (1, 1), (1, 1), (0, 1), (0, 2), (2, 0), (0, 2), (1, 1), (1, 2), (2, 0)]	NA	NA	NA	NA	NA	NA	NA	NA	NA	NA	NA	NA	NA	NA	NA	NA	NA	NA	NA	NA	NA	NA	NA	NA	NA	NA	NA	NA	NA	NA	NA	NA	1	0	1	0	0	2	2	58	NA	NA	NA	NA	NA	NA	NA	NA	NA	NA	NA	NA	NA	NA	NA	NA	NA	NA	NA	NA	NA	864.3051272998564	['left', 'left', 'left', 'left', 'left', 'right', 'left']	[6.639106099959463, 8.532640099991113, 10.720543099567294, 12.446145799942315, 14.558078699745238, 16.820705499965698, 18.613102699629962]	aae	1	2026-06-01_11h19.32.98	SS	2023.1.0	59.16421076384735
[(1, 0), (1, 1), (2, 2), (0, 0), (1, 0), (2, 1), (2, 2), (1, 2), (0, 0), (2, 0)]	NA	NA	NA	NA	NA	NA	NA	NA	NA	NA	NA	NA	NA	NA	NA	NA	NA	NA	NA	NA	NA	NA	NA	NA	NA	NA	NA	NA	NA	NA	NA	NA	1	0	1	0	0	3	3	211	NA	NA	NA	NA	NA	NA	NA	NA	NA	NA	NA	NA	NA	NA	NA	NA	NA	NA	NA	NA	NA	885.2842882000841	['right', 'left', 'right', 'left', 'right', 'left']	[8.55528109986335, 10.550055699888617, 12.603736499790102, 14.984260600060225, 17.48237879993394, 18.70052619976923]	aae	1	2026-06-01_11h19.32.98	SS	2023.1.0	59.16421076384735
[(2, 0), (2, 2), (2, 0), (0, 0), (0, 0), (2, 2), (2, 0), (2, 1), (0, 1), (2, 1)]	NA	NA	NA	NA	NA	NA	NA	NA	NA	NA	NA	NA	NA	NA	NA	NA	NA	NA	NA	NA	NA	NA	NA	NA	NA	NA	NA	NA	NA	NA	NA	NA	1	0	1	0	0	4	4	55	NA	NA	NA	NA	NA	NA	NA	NA	NA	NA	NA	NA	NA	NA	NA	NA	NA	NA	NA	NA	NA	906.3154380000196	['left', 'left', 'right', 'left', 'left', 'left']	[8.743517399765551, 11.060108999721706, 12.597035099752247, 14.520435799844563, 16.538586599752307, 18.729426299687475]	aae	1	2026-06-01_11h19.32.98	SS	2023.1.0	59.16421076384735
[(2, 0), (0, 0), (1, 2), (1, 0), (0, 1), (2, 1), (2, 1), (1, 0), (0, 1), (2, 2)]	NA	NA	NA	NA	NA	NA	NA	NA	NA	NA	NA	NA	NA	NA	NA	NA	NA	NA	NA	NA	NA	NA	NA	NA	NA	NA	NA	NA	NA	NA	NA	NA	1	0	1	0	0	5	5	557	NA	NA	NA	NA	NA	NA	NA	NA	NA	NA	NA	NA	NA	NA	NA	NA	NA	NA	NA	NA	NA	927.2970866998658	['left', 'left', 'left', 'right', 'left', 'right', 'left']	[8.705487499479204, 10.60922779981047, 12.466704199556261, 14.57787529937923, 16.602226899471134, 18.454113899730146]	aae	1	2026-06-01_11h19.32.98	SS	2023.1.0	59.16421076384735
NA	NA	NA	NA	NA	NA	NA	NA	NA	NA	NA	NA	NA	NA	NA	NA	NA	NA	NA	NA	NA	NA	NA	NA	NA	NA	NA	NA	NA	NA	NA	NA	NA	1	0	1	0	NA	NA	NA	NA	NA	NA	NA	NA	NA	NA	NA	NA	NA	NA	NA	NA	NA	NA	NA	NA	NA	NA	NA	NA	NA	NA	NA	NA	aae	1	2026-06-01_11h19.32.98	SS	2023.1.0	59.16421076384735
