imagefile	stimfile	corrAns	MRdir	angle	training.thisRepN	training.thisTrialN	training.thisN	training.thisIndex	mentalrot_trials.thisRepN	mentalrot_trials.thisTrialN	mentalrot_trials.thisN	mentalrot_trials.thisIndex	blank.started	mr_answ_2.started	mr_answ_2.keys	mr_answ_2.corr	mr_answ_2.rt	blank.stopped	mr_answ.started	mr_answ.keys	mr_answ.corr	mr_answ.rt	byebye_text.started	byebye_text.stopped	participant	session	date	expName	psychopyVersion	frameRate
mr_images/6_b.png	mr_images/6_a_z_135.png	right	cw	135	0	0	0	164	NA	NA	NA	NA	101.486330499873	101.986373099964	left	0	4.20706810010597	NA	NA	NA	NA	NA	NA	NA	aab	1	2026-06-01_14h49.26.589	MR	2023.1.0	60.0076570632885
mr_images/11_b.png	mr_images/11_a_z_45.png	right	cw	45	0	1	1	36	NA	NA	NA	NA	106.269042999949	106.806833500043	left	0	2.67072800034657	106.806833500043	NA	NA	NA	NA	NA	NA	aab	1	2026-06-01_14h49.26.589	MR	2023.1.0	60.0076570632885
mr_images/1_b.png	mr_images/1_b_z_270.png	left	ccw	90	0	2	2	19	NA	NA	NA	NA	109.506265600212	110.086289400235	left	1	3.39966190047562	110.086289400235	NA	NA	NA	NA	NA	NA	aab	1	2026-06-01_14h49.26.589	MR	2023.1.0	60.0076570632885
mr_images/9_b.png	mr_images/9_a_z_270.png	right	ccw	90	0	3	3	210	NA	NA	NA	NA	113.518620599993	114.084876799956	left	0	2.05752350017428	114.084876799956	NA	NA	NA	NA	NA	NA	aab	1	2026-06-01_14h49.26.589	MR	2023.1.0	60.0076570632885
mr_images/3_a.png	mr_images/3_b_z_315.png	right	ccw	45	0	4	4	74	NA	NA	NA	NA	116.167738900054	116.751026700251	left	0	2.68184550013393	116.751026700251	NA	NA	NA	NA	NA	NA	aab	1	2026-06-01_14h49.26.589	MR	2023.1.0	60.0076570632885
mr_images/6_b.png	mr_images/6_b_z_135.png	left	cw	135	0,375931790680625	NA	NA	NA	0	0	0	165	124.566582700238	NA	NA	NA	NA	322.925343600102	322.925343600102	left	1	3.58550278763287	NA	NA	aab	1	2026-06-01_14h49.26.589	MR	2023.1.0	60.0076570632885
mr_images/6_a.png	mr_images/6_b_z_135.png	right	cw	135	0,191541471402161	NA	NA	NA	0	1	1	152	129.082735999953	NA	NA	NA	NA	554.407789700199	554.407789700199	left	0	2.57130208634771	NA	NA	aab	1	2026-06-01_14h49.26.589	MR	2023.1.0	60.0076570632885
mr_images/3_a.png	mr_images/3_a_z_45.png	left	cw	45	0,0981653610942885	NA	NA	NA	0	2	2	73	134.598578600213	NA	NA	NA	NA	652.60988509981	652.60988509981	right	1	3.48787411954254	NA	NA	aab	1	2026-06-01_14h49.26.589	MR	2023.1.0	60.0076570632885
mr_images/5_a.png	mr_images/5_a_z_270.png	left	ccw	90	0,178731967578642	NA	NA	NA	0	3	3	127	137.831422499847	NA	NA	NA	NA	281.767527299933	281.767527299933	right	0	2.73461787761189	NA	NA	aab	1	2026-06-01_14h49.26.589	MR	2023.1.0	60.0076570632885
mr_images/9_a.png	mr_images/9_a_z_90.png	left	cw	90	0,484103168011643	NA	NA	NA	0	4	4	197	140.364406600129	NA	NA	NA	NA	649.716100099962	649.716100099962	left	1	3.09697187072598	NA	NA	aab	1	2026-06-01_14h49.26.589	MR	2023.1.0	60.0076570632885
mr_images/9_a.png	mr_images/9_b_z_45.png	right	cw	45	0,176309558446519	NA	NA	NA	0	5	5	192	142.980769500136	NA	NA	NA	NA	256.831312700175	256.831312700175	left	0	2.00552343456074	NA	NA	aab	1	2026-06-01_14h49.26.589	MR	2023.1.0	60.0076570632885
mr_images/9_b.png	mr_images/9_b_z_270.png	left	ccw	90	0,837736919638701	NA	NA	NA	0	6	6	211	146.546983300243	NA	NA	NA	NA	580.869930199813	580.869930199813	left	1	3.39847618862987	NA	NA	aab	1	2026-06-01_14h49.26.589	MR	2023.1.0	60.0076570632885
mr_images/7_b.png	mr_images/7_a_z_135.png	right	cw	135	0,96918052167166	NA	NA	NA	0	7	7	188	150.683856099844	NA	NA	NA	NA	496.798637300264	496.798637300264	left	0	3.06455453028903	NA	NA	aab	1	2026-06-01_14h49.26.589	MR	2023.1.0	60.0076570632885
mr_images/5_b.png	mr_images/5_b_z_225.png	left	ccw	135	0,237717920099385	NA	NA	NA	0	8	8	143	154.279052800033	NA	NA	NA	NA	312.340454100166	312.340454100166	left	1	2.08793967138045	NA	NA	aab	1	2026-06-01_14h49.26.589	MR	2023.1.0	60.0076570632885
mr_images/4_b.png	mr_images/4_a_z_90.png	right	cw	90	0,561436089104973	NA	NA	NA	0	9	9	112	156.962069800124	NA	NA	NA	NA	328.022055299953	328.022055299953	left	0	3.50577746978961	NA	NA	aab	1	2026-06-01_14h49.26.589	MR	2023.1.0	60.0076570632885
mr_images/6_b.png	mr_images/6_a_z_270.png	right	ccw	90	0,632717246538959	NA	NA	NA	0	10	10	162	159.745088099968	NA	NA	NA	NA	222.78627520008	222.78627520008	left	0	3.26899714884348	NA	NA	aab	1	2026-06-01_14h49.26.589	MR	2023.1.0	60.0076570632885
mr_images/9_a.png	mr_images/9_a_z_270.png	left	ccw	90	0,053810691810213	NA	NA	NA	0	11	11	199	162.411394400056	NA	NA	NA	NA	140.880818599835	140.880818599835	left	1	2.89263708335348	NA	NA	aab	1	2026-06-01_14h49.26.589	MR	2023.1.0	60.0076570632885
mr_images/9_a.png	mr_images/9_b_z_225.png	right	ccw	135	0,249456282588653	NA	NA	NA	0	12	12	202	164.948499199934	NA	NA	NA	NA	172.94328649994	172.94328649994	left	0	2.83393217148259	NA	NA	aab	1	2026-06-01_14h49.26.589	MR	2023.1.0	60.0076570632885
mr_images/9_b.png	mr_images/9_a_z_225.png	right	ccw	135	0,571148228715174	NA	NA	NA	0	13	13	214	168.698038700037	NA	NA	NA	NA	454.487437299918	454.487437299918	left	0	2.38700117710977	NA	NA	aab	1	2026-06-01_14h49.26.589	MR	2023.1.0	60.0076570632885
mr_images/9_a.png	mr_images/9_b_z_315.png	right	ccw	45	0,540492867468856	NA	NA	NA	0	14	14	194	172.393341400195	NA	NA	NA	NA	523.261286899913	523.261286899913	left	0	2.5159217776265	NA	NA	aab	1	2026-06-01_14h49.26.589	MR	2023.1.0	60.0076570632885
mr_images/4_a.png	mr_images/4_b_z_45.png	right	cw	45	0,116404809639789	NA	NA	NA	0	15	15	96	175.093217799906	NA	NA	NA	NA	211.408202900086	211.408202900086	left	0	3.4940443221014	NA	NA	aab	1	2026-06-01_14h49.26.589	MR	2023.1.0	60.0076570632885
mr_images/3_b.png	mr_images/3_a_z_45.png	right	cw	45	0,0140359153738245	NA	NA	NA	0	16	16	84	178.463279800024	NA	NA	NA	NA	628.229939400218	628.229939400218	left	0	3.71650478509254	NA	NA	aab	1	2026-06-01_14h49.26.589	MR	2023.1.0	60.0076570632885
mr_images/6_a.png	mr_images/6_a_z_90.png	left	cw	90	0,7528533131117	NA	NA	NA	0	17	17	149	180.8755024001	NA	NA	NA	NA	436.289761899971	436.289761899971	left	1	1.6358465839643	NA	NA	aab	1	2026-06-01_14h49.26.589	MR	2023.1.0	60.0076570632885
mr_images/3_b.png	mr_images/3_b_z_270.png	left	ccw	90	0,0241803623503074	NA	NA	NA	0	18	18	91	184.124894999899	NA	NA	NA	NA	598.817424000241	598.817424000241	right	0	2.53518262649886	NA	NA	aab	1	2026-06-01_14h49.26.589	MR	2023.1.0	60.0076570632885
mr_images/11_b.png	mr_images/11_a_z_270.png	right	ccw	90	0,0258589413715526	NA	NA	NA	0	19	19	42	187.591183600016	NA	NA	NA	NA	NA	135.148457500152	left	0	2.71194346500561	NA	NA	aab	1	2026-06-01_14h49.26.589	MR	2023.1.0	60.0076570632885
mr_images/11_a.png	mr_images/11_b_z_45.png	right	cw	45	0,356656621093862	NA	NA	NA	0	20	20	24	192.807096700184	NA	NA	NA	NA	639.211881000083	639.211881000083	left	0	3.83048389069736	NA	NA	aab	1	2026-06-01_14h49.26.589	MR	2023.1.0	60.0076570632885
mr_images/1_b.png	mr_images/1_a_z_45.png	right	cw	45	0,523706626030617	NA	NA	NA	0	21	21	12	195.823368700221	NA	NA	NA	NA	157.528688299935	157.528688299935	right	1	2.91166722420603	NA	NA	aab	1	2026-06-01_14h49.26.589	MR	2023.1.0	60.0076570632885
mr_images/6_b.png	mr_images/6_b_z_225.png	left	ccw	135	0,0153214352903888	NA	NA	NA	0	22	22	167	198.55634339992	NA	NA	NA	NA	441.723910099827	441.723910099827	left	1	3.36349395434372	NA	NA	aab	1	2026-06-01_14h49.26.589	MR	2023.1.0	60.0076570632885
mr_images/4_a.png	mr_images/4_a_z_270.png	left	ccw	90	0,0869232431286946	NA	NA	NA	0	23	23	103	202.205854199827	NA	NA	NA	NA	318.189434499946	318.189434499946	left	1	2.85204450320453	NA	NA	aab	1	2026-06-01_14h49.26.589	MR	2023.1.0	60.0076570632885
mr_images/3_a.png	mr_images/3_a_z_135.png	left	cw	135	0,348983699339442	NA	NA	NA	0	24	24	81	205.00547510013	NA	NA	NA	NA	466.619108099956	466.619108099956	left	1	1.85868842364289	NA	NA	aab	1	2026-06-01_14h49.26.589	MR	2023.1.0	60.0076570632885
mr_images/6_a.png	mr_images/6_a_z_45.png	left	cw	45	0,979355197283439	NA	NA	NA	0	25	25	145	207.47182130022	NA	NA	NA	NA	595.634637800045	595.634637800045	left	1	2.11975873117335	NA	NA	aab	1	2026-06-01_14h49.26.589	MR	2023.1.0	60.0076570632885
mr_images/7_b.png	mr_images/7_b_z_225.png	left	ccw	135	0,319691347074695	NA	NA	NA	0	26	26	191	210.858905500267	NA	NA	NA	NA	188.157781800255	188.157781800255	right	0	5.12185165882111	NA	NA	aab	1	2026-06-01_14h49.26.589	MR	2023.1.0	60.0076570632885
mr_images/6_a.png	mr_images/6_b_z_270.png	right	ccw	90	0,458063789526932	NA	NA	NA	0	27	27	150	213.608464099932	NA	NA	NA	NA	578.853548800107	578.853548800107	left	0	2.45427920450457	NA	NA	aab	1	2026-06-01_14h49.26.589	MR	2023.1.0	60.0076570632885
mr_images/11_b.png	mr_images/11_b_z_225.png	left	ccw	135	0,00357759336475283	NA	NA	NA	0	28	28	47	216.870411999989	NA	NA	NA	NA	405.944126199931	405.944126199931	left	1	2.1070483641699	NA	NA	aab	1	2026-06-01_14h49.26.589	MR	2023.1.0	60.0076570632885
mr_images/6_b.png	mr_images/6_a_z_135.png	right	cw	135	0,165909682749771	NA	NA	NA	0	29	29	164	219.85626959987	NA	NA	NA	NA	351.8350070999	351.8350070999	left	0	3.45179818575271	NA	NA	aab	1	2026-06-01_14h49.26.589	MR	2023.1.0	60.0076570632885
mr_images/12_a.png	mr_images/12_b_z_270.png	right	ccw	90	0,606370858033188	NA	NA	NA	0	30	30	54	222.236357000191	NA	NA	NA	NA	347.735690100119	347.735690100119	left	0	2.38092138334177	NA	NA	aab	1	2026-06-01_14h49.26.589	MR	2023.1.0	60.0076570632885
mr_images/4_b.png	mr_images/4_b_z_45.png	left	cw	45	0,821909505059011	NA	NA	NA	0	31	31	109	224.619414899964	NA	NA	NA	NA	438.023048200179	438.023048200179	left	1	4.21447360105813	NA	NA	aab	1	2026-06-01_14h49.26.589	MR	2023.1.0	60.0076570632885
mr_images/4_a.png	mr_images/4_a_z_225.png	left	ccw	135	0,180914861499332	NA	NA	NA	0	32	32	107	226.602465400007	NA	NA	NA	NA	513.345992099959	513.345992099959	right	0	2.9162133212667	NA	NA	aab	1	2026-06-01_14h49.26.589	MR	2023.1.0	60.0076570632885
mr_images/3_b.png	mr_images/3_a_z_135.png	right	cw	135	0,356717580114491	NA	NA	NA	0	33	33	92	228.902143899817	NA	NA	NA	NA	333.020946899895	333.020946899895	left	0	2.55492743030191	NA	NA	aab	1	2026-06-01_14h49.26.589	MR	2023.1.0	60.0076570632885
mr_images/5_b.png	mr_images/5_b_z_45.png	left	cw	45	0,877637362689711	NA	NA	NA	0	34	34	133	232.218320900109	NA	NA	NA	NA	490.332506000064	490.332506000064	left	1	1.30688254632987	NA	NA	aab	1	2026-06-01_14h49.26.589	MR	2023.1.0	60.0076570632885
mr_images/4_a.png	mr_images/4_a_z_90.png	left	cw	90	0,471503974753432	NA	NA	NA	0	35	35	101	234.022376399953	NA	NA	NA	NA	570.087981999852	570.087981999852	left	1	3.49909595069475	NA	NA	aab	1	2026-06-01_14h49.26.589	MR	2023.1.0	60.0076570632885
mr_images/7_b.png	mr_images/7_b_z_90.png	left	cw	90	0,980169346672483	NA	NA	NA	0	36	36	185	236.167800500058	NA	NA	NA	NA	642.278055900242	642.278055900242	right	0	2.61029515075498	NA	NA	aab	1	2026-06-01_14h49.26.589	MR	2023.1.0	60.0076570632885
mr_images/6_b.png	mr_images/6_b_z_315.png	left	ccw	45	0,757486625923775	NA	NA	NA	0	37	37	159	238.417460999917	NA	NA	NA	NA	511.729576500133	511.729576500133	left	1	2.33617809549906	NA	NA	aab	1	2026-06-01_14h49.26.589	MR	2023.1.0	60.0076570632885
mr_images/11_a.png	mr_images/11_b_z_90.png	right	cw	90	0,623998408555053	NA	NA	NA	0	38	38	28	242.400306200143	NA	NA	NA	NA	495.098403799813	495.098403799813	right	1	1.93312228354625	NA	NA	aab	1	2026-06-01_14h49.26.589	MR	2023.1.0	60.0076570632885
mr_images/11_a.png	mr_images/11_a_z_90.png	left	cw	90	0,566789517994039	NA	NA	NA	0	39	39	29	244.549955700059	NA	NA	NA	NA	492.884068700019	492.884068700019	right	0	2.44195652185008	NA	NA	aab	1	2026-06-01_14h49.26.589	MR	2023.1.0	60.0076570632885
mr_images/3_b.png	mr_images/3_a_z_225.png	right	ccw	135	0,458971870946698	NA	NA	NA	0	40	40	94	248.349365700036	NA	NA	NA	NA	236.717797799967	236.717797799967	right	1	2.87760125016794	NA	NA	aab	1	2026-06-01_14h49.26.589	MR	2023.1.0	60.0076570632885
mr_images/3_b.png	mr_images/3_b_z_315.png	left	ccw	45	0,363647179561667	NA	NA	NA	0	41	41	87	251.03245129995	NA	NA	NA	NA	540.60880669998	540.60880669998	left	1	1.85323872137815	NA	NA	aab	1	2026-06-01_14h49.26.589	MR	2023.1.0	60.0076570632885
mr_images/6_b.png	mr_images/6_b_z_270.png	left	ccw	90	0,797912719775923	NA	NA	NA	0	42	42	163	252.765526200179	NA	NA	NA	NA	254.865362800192	254.865362800192	left	1	2.50954234413803	NA	NA	aab	1	2026-06-01_14h49.26.589	MR	2023.1.0	60.0076570632885
mr_images/7_a.png	mr_images/7_a_z_225.png	left	ccw	135	0,980461875558831	NA	NA	NA	0	43	43	179	254.298608200159	NA	NA	NA	NA	515.87887990009	515.87887990009	left	1	1.69990571467206	NA	NA	aab	1	2026-06-01_14h49.26.589	MR	2023.1.0	60.0076570632885
mr_images/11_b.png	mr_images/11_b_z_135.png	left	cw	135	0,159883054555394	NA	NA	NA	0	44	44	45	256.28166980017	NA	NA	NA	NA	260.251343899872	260.251343899872	left	1	2.65199033552781	NA	NA	aab	1	2026-06-01_14h49.26.589	MR	2023.1.0	60.0076570632885
mr_images/3_b.png	mr_images/3_a_z_315.png	right	ccw	45	0,414257258991711	NA	NA	NA	0	45	45	86	257.89791850000603	NA	NA	NA	NA	588.769035100006	588.769035100006	left	0	1.26207434521057	NA	NA	aab	1	2026-06-01_14h49.26.589	MR	2023.1.0	60.0076570632885
mr_images/3_a.png	mr_images/3_b_z_135.png	right	cw	135	0,819991086493246	NA	NA	NA	0	46	46	80	259.718671199866	NA	NA	NA	NA	525.477785700001	525.477785700001	left	0	2.17241708496585	NA	NA	aab	1	2026-06-01_14h49.26.589	MR	2023.1.0	60.0076570632885
mr_images/6_b.png	mr_images/6_a_z_315.png	right	ccw	45	0,902248328668065	NA	NA	NA	0	47	47	158	261.818443499971	NA	NA	NA	NA	538.642365499865	538.642365499865	right	1	1.99376087062992	NA	NA	aab	1	2026-06-01_14h49.26.589	MR	2023.1.0	60.0076570632885
mr_images/7_a.png	mr_images/7_b_z_270.png	right	ccw	90	0,00146112346556038	NA	NA	NA	0	48	48	174	264.201509499922	NA	NA	NA	NA	509.113149399869	509.113149399869	right	1	3.21631158348173	NA	NA	aab	1	2026-06-01_14h49.26.589	MR	2023.1.0	60.0076570632885
mr_images/5_b.png	mr_images/5_b_z_135.png	left	cw	135	0,060471533681266	NA	NA	NA	0	49	49	141	265.946985300165	NA	NA	NA	NA	356.167635300197	356.167635300197	left	1	3.65748528819531	NA	NA	aab	1	2026-06-01_14h49.26.589	MR	2023.1.0	60.0076570632885
mr_images/5_b.png	mr_images/5_a_z_45.png	right	cw	45	0,150423376006074	NA	NA	NA	0	50	50	132	269.563170399983	NA	NA	NA	NA	290.146603399888	290.146603399888	left	1	2.44046419519	NA	NA	aab	1	2026-06-01_14h49.26.589	MR	2023.1.0	60.0076570632885
mr_images/7_a.png	mr_images/7_a_z_315.png	left	ccw	45	0,501928918645717	NA	NA	NA	0	51	51	171	271.279713000171	NA	NA	NA	NA	NA	462.353280200157	right	0	1.76559014809318	NA	NA	aab	1	2026-06-01_14h49.26.589	MR	2023.1.0	60.0076570632885
mr_images/12_a.png	mr_images/12_a_z_135.png	left	cw	135	0,333756242296658	NA	NA	NA	0	52	52	57	273.17926120013	NA	NA	NA	NA	162.998711300083	162.998711300083	left	1	2.42816602629609	NA	NA	aab	1	2026-06-01_14h49.26.589	MR	2023.1.0	60.0076570632885
mr_images/5_a.png	mr_images/5_b_z_90.png	right	cw	90	0,790783235919662	NA	NA	NA	0	53	53	124	275.528988100123	NA	NA	NA	NA	485.299766700249	485.299766700249	left	0	2.13659407407977	NA	NA	aab	1	2026-06-01_14h49.26.589	MR	2023.1.0	60.0076570632885
mr_images/11_a.png	mr_images/11_a_z_270.png	left	ccw	90	0,90400394552853	NA	NA	NA	0	54	54	31	278.245283000171	NA	NA	NA	NA	429.657517900225	429.657517900225	left	1	2.5179365169257	NA	NA	aab	1	2026-06-01_14h49.26.589	MR	2023.1.0	60.0076570632885
mr_images/5_a.png	mr_images/5_a_z_45.png	left	cw	45	0,745784763130359	NA	NA	NA	0	55	55	121	281.215751499869	NA	NA	NA	NA	196.3732702001	196.3732702001	left	1	2.95199145399966	NA	NA	aab	1	2026-06-01_14h49.26.589	MR	2023.1.0	60.0076570632885
mr_images/6_a.png	mr_images/6_a_z_135.png	left	cw	135	0,828320370637812	NA	NA	NA	0	56	56	153	283.782068099827	NA	NA	NA	NA	397.111873900052	397.111873900052	left	1	2.11474558762274	NA	NA	aab	1	2026-06-01_14h49.26.589	MR	2023.1.0	60.0076570632885
mr_images/9_a.png	mr_images/9_a_z_135.png	left	cw	135	0,872522432240658	NA	NA	NA	0	57	57	201	286.444559500087	NA	NA	NA	NA	474.401550000068	474.401550000068	left	1	1.98703860342503	NA	NA	aab	1	2026-06-01_14h49.26.589	MR	2023.1.0	60.0076570632885
mr_images/1_a.png	mr_images/1_a_z_135.png	left	cw	135	0,763979604118504	NA	NA	NA	0	58	58	9	289.614590799902	NA	NA	NA	NA	251.598931000102	251.598931000102	left	1	1.82452069553547	NA	NA	aab	1	2026-06-01_14h49.26.589	MR	2023.1.0	60.0076570632885
mr_images/12_b.png	mr_images/12_a_z_270.png	right	ccw	90	0,912750237272121	NA	NA	NA	0	59	59	66	291.78094260022	NA	NA	NA	NA	314.390219499823	314.390219499823	left	1	1.65655731125735	NA	NA	aab	1	2026-06-01_14h49.26.589	MR	2023.1.0	60.0076570632885
mr_images/5_a.png	mr_images/5_a_z_90.png	left	cw	90	0,463440826511942	NA	NA	NA	0	60	60	125	293.576799999923	NA	NA	NA	NA	481.61710669985	481.61710669985	left	1	2.09993875226937	NA	NA	aab	1	2026-06-01_14h49.26.589	MR	2023.1.0	60.0076570632885
mr_images/4_a.png	mr_images/4_a_z_135.png	left	cw	135	0,435271697002463	NA	NA	NA	0	61	61	105	295.959518000018	NA	NA	NA	NA	338.122696400154	338.122696400154	left	1	2.38600331121125	NA	NA	aab	1	2026-06-01_14h49.26.589	MR	2023.1.0	60.0076570632885
mr_images/12_b.png	mr_images/12_b_z_270.png	left	ccw	90	0,577187626506202	NA	NA	NA	0	62	62	67	297.975848500151	NA	NA	NA	NA	503.563997299876	503.563997299876	left	0	1.9797637202777	NA	NA	aab	1	2026-06-01_14h49.26.589	MR	2023.1.0	60.0076570632885
mr_images/1_a.png	mr_images/1_a_z_90.png	left	cw	90	0,0867086771177128	NA	NA	NA	0	63	63	5	300.008855700027	NA	NA	NA	NA	551.723869400099	551.723869400099	left	1	3.0426907856483	NA	NA	aab	1	2026-06-01_14h49.26.589	MR	2023.1.0	60.0076570632885
mr_images/9_a.png	mr_images/9_a_z_225.png	left	ccw	135	0,324551525642164	NA	NA	NA	0	64	64	203	302.646076600067	NA	NA	NA	NA	138.414673400112	138.414673400112	left	1	2.97627681940794	NA	NA	aab	1	2026-06-01_14h49.26.589	MR	2023.1.0	60.0076570632885
mr_images/6_b.png	mr_images/6_a_z_45.png	right	cw	45	0,11970645620022	NA	NA	NA	0	65	65	156	305.191408100072	NA	NA	NA	NA	612.74880329985206	612.74880329985206	left	1	2.8920861473307	NA	NA	aab	1	2026-06-01_14h49.26.589	MR	2023.1.0	60.0076570632885
mr_images/6_a.png	mr_images/6_a_z_225.png	left	ccw	135	0,267194364103489	NA	NA	NA	0	66	66	155	307.34548150003	NA	NA	NA	NA	245.10081289988	245.10081289988	left	1	3.42608363274485	NA	NA	aab	1	2026-06-01_14h49.26.589	MR	2023.1.0	60.0076570632885
mr_images/6_b.png	mr_images/6_a_z_90.png	right	cw	90	0,513877120683901	NA	NA	NA	0	67	67	160	309.457682000008	NA	NA	NA	NA	278.79713140009	278.79713140009	left	0	3.00996932401322	NA	NA	aab	1	2026-06-01_14h49.26.589	MR	2023.1.0	60.0076570632885
mr_images/3_a.png	mr_images/3_b_z_225.png	right	ccw	135	0,586774608003907	NA	NA	NA	0	68	68	82	311.79063860001	NA	NA	NA	NA	658.359156900086	658.359156900086	left	0	2.58087032353505	NA	NA	aab	1	2026-06-01_14h49.26.589	MR	2023.1.0	60.0076570632885
mr_images/7_a.png	mr_images/7_b_z_45.png	right	cw	45	0,10772994288709	NA	NA	NA	0	69	69	168	313.840430399869	NA	NA	NA	NA	517.662152000237	517.662152000237	right	1	2.31535893962719	NA	NA	aab	1	2026-06-01_14h49.26.589	MR	2023.1.0	60.0076570632885
mr_images/9_b.png	mr_images/9_b_z_45.png	left	cw	45	0,158882268820889	NA	NA	NA	0	70	70	205	315.673471800052	NA	NA	NA	NA	258.43302270025	258.43302270025	left	1	1.81940218904056	NA	NA	aab	1	2026-06-01_14h49.26.589	MR	2023.1.0	60.0076570632885
mr_images/7_a.png	mr_images/7_a_z_270.png	left	ccw	90	0,226796332863159	NA	NA	NA	0	71	71	175	317.627379800193	NA	NA	NA	NA	646.599766400177	646.599766400177	right	0	3.26147028934211	NA	NA	aab	1	2026-06-01_14h49.26.589	MR	2023.1.0	60.0076570632885
mr_images/1_b.png	mr_images/1_a_z_135.png	right	cw	135	0,500958923134022	NA	NA	NA	0	72	72	20	320.40618930012	NA	NA	NA	NA	590.051727999933	590.051727999933	left	0	3.11184823783115	NA	NA	aab	1	2026-06-01_14h49.26.589	MR	2023.1.0	60.0076570632885
mr_images/9_a.png	mr_images/9_b_z_90.png	right	cw	90	0,214846897055395	NA	NA	NA	0	73	73	196	322.393350000028	NA	NA	NA	NA	634.795804900117	634.795804900117	left	0	4.96792730130255	NA	NA	aab	1	2026-06-01_14h49.26.589	MR	2023.1.0	60.0076570632885
mr_images/5_b.png	mr_images/5_a_z_315.png	right	ccw	45	0,0335467975819483	NA	NA	NA	0	74	74	134	325.476302700117	NA	NA	NA	NA	565.872236700263	565.872236700263	left	0	2.12758990894071	NA	NA	aab	1	2026-06-01_14h49.26.589	MR	2023.1.0	60.0076570632885
mr_images/6_a.png	mr_images/6_b_z_225.png	right	ccw	135	0,834227746701799	NA	NA	NA	0	75	75	154	327.471768099815	NA	NA	NA	NA	175.679857700132	175.679857700132	left	0	3.87830187650398	NA	NA	aab	1	2026-06-01_14h49.26.589	MR	2023.1.0	60.0076570632885
mr_images/11_b.png	mr_images/11_a_z_135.png	right	cw	135	0,427689740783535	NA	NA	NA	0	76	76	44	330.604662400205	NA	NA	NA	NA	181.425224400125	181.425224400125	left	0	3.08343063155189	NA	NA	aab	1	2026-06-01_14h49.26.589	MR	2023.1.0	60.0076570632885
mr_images/5_a.png	mr_images/5_b_z_315.png	right	ccw	45	0,767715253983624	NA	NA	NA	0	77	77	122	332.458632899914	NA	NA	NA	NA	617.734689800069	617.734689800069	left	0	1.73145364220254	NA	NA	aab	1	2026-06-01_14h49.26.589	MR	2023.1.0	60.0076570632885
mr_images/12_b.png	mr_images/12_a_z_225.png	right	ccw	135	0,203216623631306	NA	NA	NA	0	78	78	70	334.987508700229	NA	NA	NA	NA	384.54732540017	384.54732540017	left	1	3.52711234083399	NA	NA	aab	1	2026-06-01_14h49.26.589	MR	2023.1.0	60.0076570632885
mr_images/6_a.png	mr_images/6_b_z_315.png	right	ccw	45	0,144908287213184	NA	NA	NA	0	79	79	146	337.570408400148	NA	NA	NA	NA	388.030326600187	388.030326600187	left	0	2.87920113876462	NA	NA	aab	1	2026-06-01_14h49.26.589	MR	2023.1.0	60.0076570632885
mr_images/1_b.png	mr_images/1_b_z_270.png	left	ccw	90	0,716224312433042	NA	NA	NA	0	80	80	19	339.807578600012	NA	NA	NA	NA	303.175078200176	303.175078200176	left	1	2.46133030788042	NA	NA	aab	1	2026-06-01_14h49.26.589	MR	2023.1.0	60.0076570632885
mr_images/11_a.png	mr_images/11_b_z_225.png	right	ccw	135	0,82697632338386	NA	NA	NA	0	81	81	34	342.103084300179	NA	NA	NA	NA	340.354102199897	340.354102199897	right	1	2.61136109177023	NA	NA	aab	1	2026-06-01_14h49.26.589	MR	2023.1.0	60.0076570632885
mr_images/12_a.png	mr_images/12_a_z_225.png	left	ccw	135	0,892805029056035	NA	NA	NA	0	82	82	59	345.285940899979	NA	NA	NA	NA	556.69181959983	556.69181959983	left	1	1.81740325139835	NA	NA	aab	1	2026-06-01_14h49.26.589	MR	2023.1.0	60.0076570632885
mr_images/9_a.png	mr_images/9_b_z_270.png	right	ccw	90	0,194078066502698	NA	NA	NA	0	83	83	198	347.169048999902	NA	NA	NA	NA	273.728908100165	273.728908100165	left	0	2.9013766176533	NA	NA	aab	1	2026-06-01_14h49.26.589	MR	2023.1.0	60.0076570632885
mr_images/1_b.png	mr_images/1_b_z_135.png	left	cw	135	0,198458004626445	NA	NA	NA	0	84	84	21	349.252137099858	NA	NA	NA	NA	205.538695400115	205.538695400115	right	0	2.67149442499503	NA	NA	aab	1	2026-06-01_14h49.26.589	MR	2023.1.0	60.0076570632885
mr_images/3_b.png	mr_images/3_b_z_135.png	left	cw	135	0,0419891070341691	NA	NA	NA	0	85	85	93	351.301764800213	NA	NA	NA	NA	644.344556500204	644.344556500204	left	1	2.29246294745244	NA	NA	aab	1	2026-06-01_14h49.26.589	MR	2023.1.0	60.0076570632885
mr_images/3_a.png	mr_images/3_a_z_315.png	left	ccw	45	0,937073567300104	NA	NA	NA	0	86	86	75	354.084839600138	NA	NA	NA	NA	592.934917000122	592.934917000122	right	0	3.143890257366	NA	NA	aab	1	2026-06-01_14h49.26.589	MR	2023.1.0	60.0076570632885
mr_images/1_b.png	mr_images/1_a_z_90.png	right	cw	90	0,851020576315932	NA	NA	NA	0	87	87	16	355.634556100238	NA	NA	NA	NA	501.331140900031	501.331140900031	right	1	2.74611615817994	NA	NA	aab	1	2026-06-01_14h49.26.589	MR	2023.1.0	60.0076570632885
mr_images/1_a.png	mr_images/1_b_z_135.png	right	cw	135	0,939031067653559	NA	NA	NA	0	88	88	8	358.65084500005503	NA	NA	NA	NA	129.649189100135	129.649189100135	right	1	0.508959364355542	NA	NA	aab	1	2026-06-01_14h49.26.589	MR	2023.1.0	60.0076570632885
mr_images/1_b.png	mr_images/1_a_z_225.png	right	ccw	135	0,630261425743811	NA	NA	NA	0	89	89	22	360.733851000201	NA	NA	NA	NA	147.099496299867	147.099496299867	left	1	4.6037959490437	NA	NA	aab	1	2026-06-01_14h49.26.589	MR	2023.1.0	60.0076570632885
mr_images/7_a.png	mr_images/7_b_z_135.png	right	cw	135	0,80506524106022	NA	NA	NA	0	90	90	176	362.66683460027	NA	NA	NA	NA	623.035304199904	623.035304199904	left	0	1.48166869538837	NA	NA	aab	1	2026-06-01_14h49.26.589	MR	2023.1.0	60.0076570632885
mr_images/12_a.png	mr_images/12_a_z_90.png	left	cw	90	0,313002084963955	NA	NA	NA	0	91	91	53	364.966697699856	NA	NA	NA	NA	390.46318460023	390.46318460023	left	1	3.83753806911409	NA	NA	aab	1	2026-06-01_14h49.26.589	MR	2023.1.0	60.0076570632885
mr_images/9_b.png	mr_images/9_b_z_90.png	left	cw	90	0,630064852186479	NA	NA	NA	0	92	92	209	368.066216900013	NA	NA	NA	NA	160.295466899872	160.295466899872	left	1	2.96216992796398	NA	NA	aab	1	2026-06-01_14h49.26.589	MR	2023.1.0	60.0076570632885
mr_images/9_b.png	mr_images/9_a_z_315.png	right	ccw	45	0,726730394992046	NA	NA	NA	0	93	93	206	371.799095300026	NA	NA	NA	NA	619.181423900183	619.181423900183	left	0	1.40501580247656	NA	NA	aab	1	2026-06-01_14h49.26.589	MR	2023.1.0	60.0076570632885
mr_images/12_b.png	mr_images/12_a_z_90.png	right	cw	90	0,463436863734387	NA	NA	NA	0	94	94	64	374.448606099933	NA	NA	NA	NA	448.938164900057	448.938164900057	left	0	1.58779024137184	NA	NA	aab	1	2026-06-01_14h49.26.589	MR	2023.1.0	60.0076570632885
mr_images/1_a.png	mr_images/1_b_z_225.png	right	ccw	135	0,761781869805418	NA	NA	NA	0	95	95	10	377.54826059984	NA	NA	NA	NA	469.335346200038	469.335346200038	left	0	3.27349117449484	NA	NA	aab	1	2026-06-01_14h49.26.589	MR	2023.1.0	60.0076570632885
mr_images/6_b.png	mr_images/6_b_z_90.png	left	cw	90	0,613523258711211	NA	NA	NA	0	96	96	161	381.014333799947	NA	NA	NA	NA	597.500973899849	597.500973899849	left	1	2.02956356168724	NA	NA	aab	1	2026-06-01_14h49.26.589	MR	2023.1.0	60.0076570632885
mr_images/1_a.png	mr_images/1_a_z_45.png	left	cw	45	0,177398388856091	NA	NA	NA	0	97	97	1	383.980567799881	NA	NA	NA	NA	544.143974199891	544.143974199891	left	1	4.08092908281833	NA	NA	aab	1	2026-06-01_14h49.26.589	MR	2023.1.0	60.0076570632885
mr_images/7_a.png	mr_images/7_a_z_135.png	left	cw	135	0,521694064955227	NA	NA	NA	0	98	98	177	387.463485800196	NA	NA	NA	NA	471.868077000137	471.868077000137	left	1	2.73772499407641	NA	NA	aab	1	2026-06-01_14h49.26.589	MR	2023.1.0	60.0076570632885
mr_images/3_a.png	mr_images/3_b_z_315.png	right	ccw	45	0,822078870958649	NA	NA	NA	0	99	99	74	389.91305470001	NA	NA	NA	NA	575.837322100066	575.837322100066	left	0	1.76516857198439	NA	NA	aab	1	2026-06-01_14h49.26.589	MR	2023.1.0	60.0076570632885
mr_images/7_b.png	mr_images/7_a_z_45.png	right	cw	45	0,883094686665572	NA	NA	NA	0	100	100	180	393.945944600273	NA	NA	NA	NA	476.434864799958	476.434864799958	right	1	1.65564966737292	NA	NA	aab	1	2026-06-01_14h49.26.589	MR	2023.1.0	60.0076570632885
mr_images/7_a.png	mr_images/7_b_z_225.png	right	ccw	135	0,972455832990818	NA	NA	NA	0	101	101	178	396.578806499951	NA	NA	NA	NA	620.44776479993	620.44776479993	left	0	2.54001295547932	NA	NA	aab	1	2026-06-01_14h49.26.589	MR	2023.1.0	60.0076570632885
mr_images/4_a.png	mr_images/4_a_z_45.png	left	cw	45	0,127019687439315	NA	NA	NA	0	102	102	97	398.745119200088	NA	NA	NA	NA	491.354567599949	491.354567599949	left	1	1.80167998527177	NA	NA	aab	1	2026-06-01_14h49.26.589	MR	2023.1.0	60.0076570632885
mr_images/4_b.png	mr_images/4_b_z_270.png	left	ccw	90	0,721027095452882	NA	NA	NA	0	103	103	115	400.6449231999	NA	NA	NA	NA	547.857774199918	547.857774199918	left	1	2.49346749065444	NA	NA	aab	1	2026-06-01_14h49.26.589	MR	2023.1.0	60.0076570632885
mr_images/12_b.png	mr_images/12_b_z_315.png	left	ccw	45	0,309764118283056	NA	NA	NA	0	104	104	63	402.277991900221	NA	NA	NA	NA	488.949308100157	488.949308100157	left	1	1.87249905262142	NA	NA	aab	1	2026-06-01_14h49.26.589	MR	2023.1.0	60.0076570632885
mr_images/3_b.png	mr_images/3_a_z_270.png	right	ccw	90	0,0324981593294069	NA	NA	NA	0	105	105	90	405.415981300175	NA	NA	NA	NA	563.505673599895	563.505673599895	left	0	3.24595433296635	NA	NA	aab	1	2026-06-01_14h49.26.589	MR	2023.1.0	60.0076570632885
mr_images/5_b.png	mr_images/5_a_z_135.png	right	cw	135	0,414841021294706	NA	NA	NA	0	106	106	140	407.160968400072	NA	NA	NA	NA	365.533134399913	365.533134399913	left	0	2.87201389931142	NA	NA	aab	1	2026-06-01_14h49.26.589	MR	2023.1.0	60.0076570632885
mr_images/4_a.png	mr_images/4_b_z_270.png	right	ccw	90	0,677110594580881	NA	NA	NA	0	107	107	102	409.66030099988	NA	NA	NA	NA	266.496602400206	266.496602400206	left	0	4.11380906575359	NA	NA	aab	1	2026-06-01_14h49.26.589	MR	2023.1.0	60.0076570632885
mr_images/12_a.png	mr_images/12_b_z_135.png	right	cw	135	0,156476304749958	NA	NA	NA	0	108	108	56	412.593340999912	NA	NA	NA	NA	507.46363400016	507.46363400016	left	0	1.93116463823243	NA	NA	aab	1	2026-06-01_14h49.26.589	MR	2023.1.0	60.0076570632885
mr_images/4_a.png	mr_images/4_b_z_135.png	right	cw	135	0,338599812122993	NA	NA	NA	0	109	109	104	415.263887499925	NA	NA	NA	NA	421.975554599892	421.975554599892	left	0	2.50813328041695	NA	NA	aab	1	2026-06-01_14h49.26.589	MR	2023.1.0	60.0076570632885
mr_images/5_a.png	mr_images/5_b_z_45.png	right	cw	45	0,292172185494565	NA	NA	NA	0	110	110	120	418.475787000265	NA	NA	NA	NA	410.210912500042	410.210912500042	right	1	3.08036838597618	NA	NA	aab	1	2026-06-01_14h49.26.589	MR	2023.1.0	60.0076570632885
mr_images/4_b.png	mr_images/4_b_z_135.png	left	cw	135	0,0408386524068192	NA	NA	NA	0	111	111	117	421.429598300252	NA	NA	NA	NA	184.69160469994	184.69160469994	right	0	4.00118887606076	NA	NA	aab	1	2026-06-01_14h49.26.589	MR	2023.1.0	60.0076570632885
mr_images/7_b.png	mr_images/7_a_z_90.png	right	cw	90	0,27723423356656	NA	NA	NA	0	112	112	184	424.108134800103	NA	NA	NA	NA	584.023232799955	584.023232799955	right	1	3.84672285029664	NA	NA	aab	1	2026-06-01_14h49.26.589	MR	2023.1.0	60.0076570632885
mr_images/9_b.png	mr_images/9_b_z_225.png	left	ccw	135	0,290723018464632	NA	NA	NA	0	113	113	215	425.958144600038	NA	NA	NA	NA	NA	527.593904600013	left	1	3.14257007613778	NA	NA	aab	1	2026-06-01_14h49.26.589	MR	2023.1.0	60.0076570632885
mr_images/1_b.png	mr_images/1_a_z_270.png	right	ccw	90	0,329890722292475	NA	NA	NA	0	114	114	18	429.124429699965	NA	NA	NA	NA	499.06465259986	499.06465259986	left	0	2.03848941219039	NA	NA	aab	1	2026-06-01_14h49.26.589	MR	2023.1.0	60.0076570632885
mr_images/4_b.png	mr_images/4_b_z_315.png	left	ccw	45	0,0965035307453945	NA	NA	NA	0	115	115	111	431.590621000156	NA	NA	NA	NA	447.321753399912	447.321753399912	left	1	1.20246958276257	NA	NA	aab	1	2026-06-01_14h49.26.589	MR	2023.1.0	60.0076570632885
mr_images/9_b.png	mr_images/9_a_z_45.png	right	cw	45	0,304962460999377	NA	NA	NA	0	116	116	204	433.694609799888	NA	NA	NA	NA	307.890995000023	307.890995000023	left	0	2.71554052638821	NA	NA	aab	1	2026-06-01_14h49.26.589	MR	2023.1.0	60.0076570632885
mr_images/12_b.png	mr_images/12_a_z_45.png	right	cw	45	0,196372589911334	NA	NA	NA	0	117	117	60	435.756745500024	NA	NA	NA	NA	264.78047550004	264.78047550004	left	0	2.14499843562953	NA	NA	aab	1	2026-06-01_14h49.26.589	MR	2023.1.0	60.0076570632885
mr_images/3_a.png	mr_images/3_a_z_270.png	left	ccw	90	0,875979939824902	NA	NA	NA	0	118	118	79	437.489964900073	NA	NA	NA	NA	426.508202100173	426.508202100173	left	1	3.12133226571605	NA	NA	aab	1	2026-06-01_14h49.26.589	MR	2023.1.0	60.0076570632885
mr_images/12_a.png	mr_images/12_b_z_90.png	right	cw	90	0,693513027275913	NA	NA	NA	0	119	119	52	441.206285499968	NA	NA	NA	NA	225.169319500215	225.169319500215	left	0	2.49471148210577	NA	NA	aab	1	2026-06-01_14h49.26.589	MR	2023.1.0	60.0076570632885
mr_images/11_a.png	mr_images/11_a_z_225.png	left	ccw	135	0,455285525531508	NA	NA	NA	0	120	120	35	444.7555455002	NA	NA	NA	NA	368.599335600156	368.599335600156	right	0	4.29675357933156	NA	NA	aab	1	2026-06-01_14h49.26.589	MR	2023.1.0	60.0076570632885
mr_images/5_a.png	mr_images/5_a_z_315.png	left	ccw	45	0,639626226504333	NA	NA	NA	0	121	121	123	446.755253700074	NA	NA	NA	NA	624.763975299895	624.763975299895	left	1	3.65094821229577	NA	NA	aab	1	2026-06-01_14h49.26.589	MR	2023.1.0	60.0076570632885
mr_images/9_a.png	mr_images/9_b_z_135.png	right	cw	135	0,455025862320326	NA	NA	NA	0	122	122	200	448.404914900195	NA	NA	NA	NA	483.435905400198	483.435905400198	left	1	1.67933001578785	NA	NA	aab	1	2026-06-01_14h49.26.589	MR	2023.1.0	60.0076570632885
mr_images/3_b.png	mr_images/3_b_z_225.png	left	ccw	135	0,86642586987	NA	NA	NA	0	123	123	95	450.121892400086	NA	NA	NA	NA	227.185906799976	227.185906799976	left	1	1.79905822277069	NA	NA	aab	1	2026-06-01_14h49.26.589	MR	2023.1.0	60.0076570632885
mr_images/4_b.png	mr_images/4_a_z_135.png	right	cw	135	0,792231507482939	NA	NA	NA	0	124	124	116	451.438024000265	NA	NA	NA	NA	505.130347399972	505.130347399972	left	0	2.41263482091018	NA	NA	aab	1	2026-06-01_14h49.26.589	MR	2023.1.0	60.0076570632885
mr_images/6_b.png	mr_images/6_b_z_45.png	left	cw	45	0,681013425462879	NA	NA	NA	0	125	125	157	453.954324999824	NA	NA	NA	NA	316.227847100236	316.227847100236	left	1	2.31834880993702	NA	NA	aab	1	2026-06-01_14h49.26.589	MR	2023.1.0	60.0076570632885
mr_images/12_a.png	mr_images/12_a_z_270.png	left	ccw	90	0,598490495118313	NA	NA	NA	0	126	126	55	456.287258400116	NA	NA	NA	NA	381.547554399818	381.547554399818	left	1	2.88754872325808	NA	NA	aab	1	2026-06-01_14h49.26.589	MR	2023.1.0	60.0076570632885
mr_images/1_b.png	mr_images/1_b_z_90.png	left	cw	90	0,0300155520671979	NA	NA	NA	0	127	127	17	460.137107899878	NA	NA	NA	NA	300.528063499834	300.528063499834	left	1	2.59748720917851	NA	NA	aab	1	2026-06-01_14h49.26.589	MR	2023.1.0	60.0076570632885
mr_images/4_a.png	mr_images/4_b_z_225.png	right	ccw	135	0,879829622455873	NA	NA	NA	0	128	128	106	461.807367899921	NA	NA	NA	NA	151.22965170024	151.22965170024	right	1	3.80292894793674	NA	NA	aab	1	2026-06-01_14h49.26.589	MR	2023.1.0	60.0076570632885
mr_images/9_a.png	mr_images/9_a_z_315.png	left	ccw	45	0,721990910475142	NA	NA	NA	0	129	129	195	463.586595000234	NA	NA	NA	NA	305.73057120014	305.73057120014	left	1	2.35373691902496	NA	NA	aab	1	2026-06-01_14h49.26.589	MR	2023.1.0	60.0076570632885
mr_images/5_a.png	mr_images/5_a_z_135.png	left	cw	135	0,180982105084695	NA	NA	NA	0	130	130	129	466.069263999816	NA	NA	NA	NA	536.759579400066	536.759579400066	left	1	1.95960643282161	NA	NA	aab	1	2026-06-01_14h49.26.589	MR	2023.1.0	60.0076570632885
mr_images/7_b.png	mr_images/7_b_z_270.png	left	ccw	90	0,0627129835775122	NA	NA	NA	0	131	131	187	467.335637500044	NA	NA	NA	NA	248.916012300178	248.916012300178	left	1	2.9920806397684	NA	NA	aab	1	2026-06-01_14h49.26.589	MR	2023.1.0	60.0076570632885
mr_images/4_b.png	mr_images/4_b_z_90.png	left	cw	90	0,544212481123395	NA	NA	NA	0	132	132	113	468.802125200164	NA	NA	NA	NA	464.119484799914	464.119484799914	left	1	2.38953748671338	NA	NA	aab	1	2026-06-01_14h49.26.589	MR	2023.1.0	60.0076570632885
mr_images/7_b.png	mr_images/7_a_z_225.png	right	ccw	135	0,374039560905658	NA	NA	NA	0	133	133	190	471.318552399986	NA	NA	NA	NA	487.072331900243	487.072331900243	left	0	1.42978547685779	NA	NA	aab	1	2026-06-01_14h49.26.589	MR	2023.1.0	60.0076570632885
mr_images/11_b.png	mr_images/11_b_z_90.png	left	cw	90	0,627235048799776	NA	NA	NA	0	134	134	41	473.868119500112	NA	NA	NA	NA	601.217278200202	601.217278200202	left	1	4.0518768416252	NA	NA	aab	1	2026-06-01_14h49.26.589	MR	2023.1.0	60.0076570632885
mr_images/1_a.png	mr_images/1_b_z_45.png	right	cw	45	0,703897800878622	NA	NA	NA	0	135	135	0	475.917790200096	NA	NA	NA	NA	479.217651000246	479.217651000246	left	0	2.7951370423194	NA	NA	aab	1	2026-06-01_14h49.26.589	MR	2023.1.0	60.0076570632885
mr_images/7_a.png	mr_images/7_b_z_90.png	right	cw	90	0,567980503547005	NA	NA	NA	0	136	136	172	477.500997399911	NA	NA	NA	NA	542.425156800076	542.425156800076	left	0	2.00374428490176	NA	NA	aab	1	2026-06-01_14h49.26.589	MR	2023.1.0	60.0076570632885
mr_images/5_a.png	mr_images/5_b_z_270.png	right	ccw	90	0,187843049061485	NA	NA	NA	0	137	137	126	478.667528099846	NA	NA	NA	NA	262.369301199913	262.369301199913	left	0	2.85938686812296	NA	NA	aab	1	2026-06-01_14h49.26.589	MR	2023.1.0	60.0076570632885
mr_images/11_a.png	mr_images/11_b_z_135.png	right	cw	135	0,678674166905694	NA	NA	NA	0	138	138	32	481.083739799913	NA	NA	NA	NA	208.043366100173	208.043366100173	left	0	3.37466981839389	NA	NA	aab	1	2026-06-01_14h49.26.589	MR	2023.1.0	60.0076570632885
mr_images/11_b.png	mr_images/11_a_z_225.png	right	ccw	135	0,0615456727100536	NA	NA	NA	0	139	139	46	482.883886000142	NA	NA	NA	NA	202.759616900235	202.759616900235	right	1	3.03505442994647	NA	NA	aab	1	2026-06-01_14h49.26.589	MR	2023.1.0	60.0076570632885
mr_images/3_b.png	mr_images/3_b_z_90.png	left	cw	90	0,317138253594749	NA	NA	NA	0	140	140	89	484.770780700259	NA	NA	NA	NA	451.971176200081	451.971176200081	left	1	2.93006087164394	NA	NA	aab	1	2026-06-01_14h49.26.589	MR	2023.1.0	60.0076570632885
mr_images/9_b.png	mr_images/9_b_z_135.png	left	cw	135	0,929320776253007	NA	NA	NA	0	141	141	213	486.516408800148	NA	NA	NA	NA	530.243621599861	530.243621599861	left	1	2.89090923806653	NA	NA	aab	1	2026-06-01_14h49.26.589	MR	2023.1.0	60.0076570632885
mr_images/9_a.png	mr_images/9_a_z_45.png	left	cw	45	0,812086082412861	NA	NA	NA	0	142	142	193	488.42038499983	NA	NA	NA	NA	320.943297300022	320.943297300022	left	1	2.07310077478178	NA	NA	aab	1	2026-06-01_14h49.26.589	MR	2023.1.0	60.0076570632885
mr_images/12_a.png	mr_images/12_a_z_45.png	left	cw	45	0,189208372612484	NA	NA	NA	0	143	143	49	489.799232600257	NA	NA	NA	NA	549.957564999815	549.957564999815	left	1	2.76252755434253	NA	NA	aab	1	2026-06-01_14h49.26.589	MR	2023.1.0	60.0076570632885
mr_images/4_b.png	mr_images/4_b_z_225.png	left	ccw	135	0,991176003706642	NA	NA	NA	0	144	144	119	490.816142499913	NA	NA	NA	NA	NA	125.083028799854	right	0	4.91693629249931	NA	NA	aab	1	2026-06-01_14h49.26.589	MR	2023.1.0	60.0076570632885
mr_images/11_b.png	mr_images/11_b_z_45.png	left	cw	45	0,699360938859172	NA	NA	NA	0	145	145	37	492.353151900228	NA	NA	NA	NA	199.122934100218	199.122934100218	left	1	4.39630592707544	NA	NA	aab	1	2026-06-01_14h49.26.589	MR	2023.1.0	60.0076570632885
mr_images/1_a.png	mr_images/1_a_z_315.png	left	ccw	45	0,512364370399155	NA	NA	NA	0	146	146	3	494.536250100005	NA	NA	NA	NA	604.46875349991	604.46875349991	right	0	4.76022121743299	NA	NA	aab	1	2026-06-01_14h49.26.589	MR	2023.1.0	60.0076570632885
mr_images/7_b.png	mr_images/7_a_z_315.png	right	ccw	45	0,800992288044654	NA	NA	NA	0	147	147	182	496.265016200021	NA	NA	NA	NA	378.098410999868	378.098410999868	left	0	3.54480930282735	NA	NA	aab	1	2026-06-01_14h49.26.589	MR	2023.1.0	60.0076570632885
mr_images/7_b.png	mr_images/7_a_z_270.png	right	ccw	90	0,2166401197901	NA	NA	NA	0	148	148	186	498.531412700191	NA	NA	NA	NA	577.587106800173	577.587106800173	left	0	1.58968540783971	NA	NA	aab	1	2026-06-01_14h49.26.589	MR	2023.1.0	60.0076570632885
mr_images/5_a.png	mr_images/5_b_z_225.png	right	ccw	135	0,747377018094994	NA	NA	NA	0	149	149	130	500.764461200219	NA	NA	NA	NA	424.641695300117	424.641695300117	left	0	2.64547316534445	NA	NA	aab	1	2026-06-01_14h49.26.589	MR	2023.1.0	60.0076570632885
mr_images/7_b.png	mr_images/7_b_z_315.png	left	ccw	45	0,898133515031077	NA	NA	NA	0	150	150	183	503.030697300099	NA	NA	NA	NA	326.038603099994	326.038603099994	left	1	2.15857605040073	NA	NA	aab	1	2026-06-01_14h49.26.589	MR	2023.1.0	60.0076570632885
mr_images/11_a.png	mr_images/11_b_z_270.png	right	ccw	90	0,694969039293937	NA	NA	NA	0	151	151	30	504.597221999895	NA	NA	NA	NA	520.028418600094	520.028418600094	left	0	3.82038975046016	NA	NA	aab	1	2026-06-01_14h49.26.589	MR	2023.1.0	60.0076570632885
mr_images/5_b.png	mr_images/5_a_z_225.png	right	ccw	135	0,170844753622077	NA	NA	NA	0	152	152	142	506.930172599852	NA	NA	NA	NA	434.208470900077	434.208470900077	left	0	1.89681392041966	NA	NA	aab	1	2026-06-01_14h49.26.589	MR	2023.1.0	60.0076570632885
mr_images/12_b.png	mr_images/12_b_z_45.png	left	cw	45	0,227161864400841	NA	NA	NA	0	153	153	61	508.580043700058	NA	NA	NA	NA	478.034216300119	478.034216300119	left	1	1.71170922960154	NA	NA	aab	1	2026-06-01_14h49.26.589	MR	2023.1.0	60.0076570632885
mr_images/3_a.png	mr_images/3_b_z_270.png	right	ccw	90	0,779521455639042	NA	NA	NA	0	154	154	78	511.196323700249	NA	NA	NA	NA	276.095898400061	276.095898400061	left	0	3.31082425042987	NA	NA	aab	1	2026-06-01_14h49.26.589	MR	2023.1.0	60.0076570632885
mr_images/6_b.png	mr_images/6_a_z_225.png	right	ccw	135	0,323977347812615	NA	NA	NA	0	155	155	166	512.812797700055	NA	NA	NA	NA	456.820452400018	456.820452400018	left	0	4.1633115163073	NA	NA	aab	1	2026-06-01_14h49.26.589	MR	2023.1.0	60.0076570632885
mr_images/7_b.png	mr_images/7_b_z_45.png	left	cw	45	0,390900247613899	NA	NA	NA	0	156	156	181	515.345723100007	NA	NA	NA	NA	154.845764200203	154.845764200203	left	1	2.91808262062259	NA	NA	aab	1	2026-06-01_14h49.26.589	MR	2023.1.0	60.0076570632885
mr_images/1_b.png	mr_images/1_b_z_225.png	left	ccw	135	0,580712609109469	NA	NA	NA	0	157	157	23	517.128750000149	NA	NA	NA	NA	402.834058700129	402.834058700129	right	0	3.19775623828173	NA	NA	aab	1	2026-06-01_14h49.26.589	MR	2023.1.0	60.0076570632885
mr_images/1_b.png	mr_images/1_a_z_315.png	right	ccw	45	0,291161908884533	NA	NA	NA	0	158	158	14	519.49527399987	NA	NA	NA	NA	660.892165299971	660.892165299971	left	1	1.36430927002802	NA	NA	aab	1	2026-06-01_14h49.26.589	MR	2023.1.0	60.0076570632885
mr_images/11_a.png	mr_images/11_b_z_315.png	right	ccw	45	0,218008613563143	NA	NA	NA	0	159	159	26	522.728053099942	NA	NA	NA	NA	450.654626300093	450.654626300093	left	1	1.83477533962577	NA	NA	aab	1	2026-06-01_14h49.26.589	MR	2023.1.0	60.0076570632885
mr_images/12_a.png	mr_images/12_b_z_225.png	right	ccw	135	0,449250000412576	NA	NA	NA	0	160	160	58	524.911036300007	NA	NA	NA	NA	286.997568199877	286.997568199877	left	0	3.32623959644698	NA	NA	aab	1	2026-06-01_14h49.26.589	MR	2023.1.0	60.0076570632885
mr_images/7_a.png	mr_images/7_a_z_90.png	left	cw	90	0,740542722051032	NA	NA	NA	0	161	161	173	527.060736699961	NA	NA	NA	NA	608.615855200216	608.615855200216	right	1	4.91556144314818	NA	NA	aab	1	2026-06-01_14h49.26.589	MR	2023.1.0	60.0076570632885
mr_images/11_a.png	mr_images/11_a_z_135.png	left	cw	135	0,724927988252603	NA	NA	NA	0	162	162	33	529.710372100119	NA	NA	NA	NA	631.279876200017	631.279876200017	left	1	3.39685103241354	NA	NA	aab	1	2026-06-01_14h49.26.589	MR	2023.1.0	60.0076570632885
mr_images/1_b.png	mr_images/1_b_z_315.png	left	ccw	45	0,412457370548509	NA	NA	NA	0	163	163	15	532.593362600077	NA	NA	NA	NA	418.998388899956	418.998388899956	left	1	3.60531012248248	NA	NA	aab	1	2026-06-01_14h49.26.589	MR	2023.1.0	60.0076570632885
mr_images/3_a.png	mr_images/3_a_z_90.png	left	cw	90	0,392448310158215	NA	NA	NA	0	164	164	77	536.226186499931	NA	NA	NA	NA	533.160229400266	533.160229400266	right	0	4.1686104117427	NA	NA	aab	1	2026-06-01_14h49.26.589	MR	2023.1.0	60.0076570632885
mr_images/5_a.png	mr_images/5_b_z_135.png	right	cw	135	0,928460427210666	NA	NA	NA	0	165	165	128	538.10920510022	NA	NA	NA	NA	331.160638100002	331.160638100002	left	0	2.43722613090649	NA	NA	aab	1	2026-06-01_14h49.26.589	MR	2023.1.0	60.0076570632885
mr_images/9_b.png	mr_images/9_a_z_90.png	right	cw	90	0,519962857360952	NA	NA	NA	0	166	166	208	540.075627900194	NA	NA	NA	NA	165.514808299951	165.514808299951	right	1	3.53273862078786	NA	NA	aab	1	2026-06-01_14h49.26.589	MR	2023.1.0	60.0076570632885
mr_images/1_a.png	mr_images/1_b_z_315.png	right	ccw	45	0,0701471870997921	NA	NA	NA	0	167	167	2	541.875362900086	NA	NA	NA	NA	298.525709399954	298.525709399954	left	0	2.67264638333582	NA	NA	aab	1	2026-06-01_14h49.26.589	MR	2023.1.0	60.0076570632885
mr_images/12_b.png	mr_images/12_b_z_90.png	left	cw	90	0,157318613142706	NA	NA	NA	0	168	168	65	543.625126600266	NA	NA	NA	NA	345.819198499899	345.819198499899	left	1	2.37110577174462	NA	NA	aab	1	2026-06-01_14h49.26.589	MR	2023.1.0	60.0076570632885
mr_images/4_a.png	mr_images/4_a_z_315.png	left	ccw	45	0,670445540104993	NA	NA	NA	0	169	169	99	547.328830900136	NA	NA	NA	NA	614.998403099831	614.998403099831	right	0	2.86222145189531	NA	NA	aab	1	2026-06-01_14h49.26.589	MR	2023.1.0	60.0076570632885
mr_images/12_b.png	mr_images/12_a_z_135.png	right	cw	135	0,925099365762435	NA	NA	NA	0	170	170	68	549.424333900213	NA	NA	NA	NA	309.990802799817	309.990802799817	left	0	2.60517659215257	NA	NA	aab	1	2026-06-01_14h49.26.589	MR	2023.1.0	60.0076570632885
mr_images/12_a.png	mr_images/12_b_z_45.png	right	cw	45	0,8906430414645	NA	NA	NA	0	171	171	48	551.190764899831	NA	NA	NA	NA	271.846192900091	271.846192900091	right	1	2.04317388078198	NA	NA	aab	1	2026-06-01_14h49.26.589	MR	2023.1.0	60.0076570632885
mr_images/7_a.png	mr_images/7_a_z_45.png	left	cw	45	0,292316415463574	NA	NA	NA	0	172	172	169	553.877826299984	NA	NA	NA	NA	460.689503700007	460.689503700007	left	1	1.27905273362994	NA	NA	aab	1	2026-06-01_14h49.26.589	MR	2023.1.0	60.0076570632885
mr_images/12_a.png	mr_images/12_a_z_315.png	left	ccw	45	0,204221902997233	NA	NA	NA	0	173	173	51	556.157486100216	NA	NA	NA	NA	234.58461710019	234.58461710019	left	0	2.99247666033917	NA	NA	aab	1	2026-06-01_14h49.26.589	MR	2023.1.0	60.0076570632885
mr_images/6_a.png	mr_images/6_a_z_315.png	left	ccw	45	0,362140370183624	NA	NA	NA	0	174	174	147	557.494117500261	NA	NA	NA	NA	394.513001199812	394.513001199812	left	1	2.39404714941047	NA	NA	aab	1	2026-06-01_14h49.26.589	MR	2023.1.0	60.0076570632885
mr_images/6_a.png	mr_images/6_b_z_45.png	right	cw	45	0,201239637448452	NA	NA	NA	0	175	175	144	560.810288799927	NA	NA	NA	NA	359.184069499839	359.184069499839	right	1	2.14999903584831	NA	NA	aab	1	2026-06-01_14h49.26.589	MR	2023.1.0	60.0076570632885
mr_images/3_a.png	mr_images/3_b_z_90.png	right	cw	90	0,979729393846355	NA	NA	NA	0	176	176	76	562.972454800271	NA	NA	NA	NA	445.322041400243	445.322041400243	left	0	2.57563126701862	NA	NA	aab	1	2026-06-01_14h49.26.589	MR	2023.1.0	60.0076570632885
mr_images/3_b.png	mr_images/3_b_z_45.png	left	cw	45	0,202368460013531	NA	NA	NA	0	177	177	85	565.305352999829	NA	NA	NA	NA	558.02548710024	558.02548710024	right	0	3.37066581463441	NA	NA	aab	1	2026-06-01_14h49.26.589	MR	2023.1.0	60.0076570632885
mr_images/7_a.png	mr_images/7_b_z_315.png	right	ccw	45	0,161895390949212	NA	NA	NA	0	178	178	170	566.938621100038	NA	NA	NA	NA	354.651357300114	354.651357300114	left	0	2.11725068399682	NA	NA	aab	1	2026-06-01_14h49.26.589	MR	2023.1.0	60.0076570632885
mr_images/4_b.png	mr_images/4_a_z_225.png	right	ccw	135	0,047577275778167	NA	NA	NA	0	179	179	118	569.554856200237	NA	NA	NA	NA	415.826048200019	415.826048200019	left	1	3.41470526782796	NA	NA	aab	1	2026-06-01_14h49.26.589	MR	2023.1.0	60.0076570632885
mr_images/9_b.png	mr_images/9_a_z_135.png	right	cw	135	0,814760824316181	NA	NA	NA	0	180	180	212	572.637671399862	NA	NA	NA	NA	294.143243100029	294.143243100029	left	0	2.88675843859091	NA	NA	aab	1	2026-06-01_14h49.26.589	MR	2023.1.0	60.0076570632885
mr_images/4_b.png	mr_images/4_a_z_315.png	right	ccw	45	0,203421384911053	NA	NA	NA	0	181	181	110	575.304180900101	NA	NA	NA	NA	467.886977599934	467.886977599934	left	0	1.8390708300285	NA	NA	aab	1	2026-06-01_14h49.26.589	MR	2023.1.0	60.0076570632885
mr_images/11_a.png	mr_images/11_a_z_315.png	left	ccw	45	0,90021026681643	NA	NA	NA	0	182	182	27	577.020525199827	NA	NA	NA	NA	292.310432699975	292.310432699975	right	0	2.69866216024384	NA	NA	aab	1	2026-06-01_14h49.26.589	MR	2023.1.0	60.0076570632885
mr_images/11_a.png	mr_images/11_a_z_45.png	left	cw	45	0,705030402983539	NA	NA	NA	0	183	183	25	578.320173399989	NA	NA	NA	NA	573.170977199916	573.170977199916	left	1	2.54128528479487	NA	NA	aab	1	2026-06-01_14h49.26.589	MR	2023.1.0	60.0076570632885
mr_images/7_b.png	mr_images/7_b_z_135.png	left	cw	135	0,262441954924725	NA	NA	NA	0	184	184	189	580.336709400173	NA	NA	NA	NA	561.372655800078	561.372655800078	left	1	2.77700269077905	NA	NA	aab	1	2026-06-01_14h49.26.589	MR	2023.1.0	60.0076570632885
mr_images/12_b.png	mr_images/12_a_z_315.png	right	ccw	45	0,157300355727784	NA	NA	NA	0	185	185	62	583.469608699903	NA	NA	NA	NA	363.200168100186	363.200168100186	left	0	2.82312810360454	NA	NA	aab	1	2026-06-01_14h49.26.589	MR	2023.1.0	60.0076570632885
mr_images/5_b.png	mr_images/5_b_z_90.png	left	cw	90	0,60025613324251	NA	NA	NA	0	186	186	137	586.739928900264	NA	NA	NA	NA	169.260196300223	169.260196300223	left	1	4.25069969436154	NA	NA	aab	1	2026-06-01_14h49.26.589	MR	2023.1.0	60.0076570632885
mr_images/6_a.png	mr_images/6_a_z_270.png	left	ccw	90	0,641590132727288	NA	NA	NA	0	187	187	151	588.202320999932	NA	NA	NA	NA	401.17813679995	401.17813679995	left	1	2.04236690024845	NA	NA	aab	1	2026-06-01_14h49.26.589	MR	2023.1.0	60.0076570632885
mr_images/12_b.png	mr_images/12_b_z_135.png	left	cw	135	0,302451655850746	NA	NA	NA	0	188	188	69	589.518751999829	NA	NA	NA	NA	361.300210400019	361.300210400019	left	1	1.88516700528562	NA	NA	aab	1	2026-06-01_14h49.26.589	MR	2023.1.0	60.0076570632885
mr_images/4_b.png	mr_images/4_a_z_45.png	right	cw	45	0,321981604793109	NA	NA	NA	0	189	189	108	592.40171799995	NA	NA	NA	NA	432.143686300144	432.143686300144	left	0	2.97139887553639	NA	NA	aab	1	2026-06-01_14h49.26.589	MR	2023.1.0	60.0076570632885
mr_images/4_a.png	mr_images/4_b_z_90.png	right	cw	90	0,768898353097029	NA	NA	NA	0	190	190	100	595.084614600055	NA	NA	NA	NA	143.531323700212	143.531323700212	left	0	3.67328693903982	NA	NA	aab	1	2026-06-01_14h49.26.589	MR	2023.1.0	60.0076570632885
mr_images/4_b.png	mr_images/4_a_z_270.png	right	ccw	90	0,472484491416253	NA	NA	NA	0	191	191	114	596.967701800168	NA	NA	NA	NA	372.332202900201	372.332202900201	left	0	2.81280267890543	NA	NA	aab	1	2026-06-01_14h49.26.589	MR	2023.1.0	60.0076570632885
mr_images/5_b.png	mr_images/5_a_z_90.png	right	cw	90	0,351132252602838	NA	NA	NA	0	192	192	136	598.284217400011	NA	NA	NA	NA	242.967037099879	242.967037099879	left	1	2.21931807924994	NA	NA	aab	1	2026-06-01_14h49.26.589	MR	2023.1.0	60.0076570632885
mr_images/3_a.png	mr_images/3_a_z_225.png	left	ccw	135	0,0409678780706599	NA	NA	NA	0	193	193	83	600.68386660004	NA	NA	NA	NA	407.693913199939	407.693913199939	right	1	2.77073289104737	NA	NA	aab	1	2026-06-01_14h49.26.589	MR	2023.1.0	60.0076570632885
mr_images/11_b.png	mr_images/11_b_z_270.png	left	ccw	90	0,255709772580303	NA	NA	NA	0	194	194	43	603.917218199931	NA	NA	NA	NA	375.015182100236	375.015182100236	left	1	3.71026800642722	NA	NA	aab	1	2026-06-01_14h49.26.589	MR	2023.1.0	60.0076570632885
mr_images/11_b.png	mr_images/11_a_z_315.png	right	ccw	45	0,415144326747395	NA	NA	NA	0	195	195	38	608.087045900058	NA	NA	NA	NA	284.34445460001	284.34445460001	left	0	3.20906776846387	NA	NA	aab	1	2026-06-01_14h49.26.589	MR	2023.1.0	60.0076570632885
mr_images/1_b.png	mr_images/1_b_z_45.png	left	cw	45	0,0716259164037183	NA	NA	NA	0	196	196	13	612.215628299862	NA	NA	NA	NA	567.471752900165	567.471752900165	right	0	2.72003382691182	NA	NA	aab	1	2026-06-01_14h49.26.589	MR	2023.1.0	60.0076570632885
mr_images/5_b.png	mr_images/5_b_z_315.png	left	ccw	45	0,602922334917821	NA	NA	NA	0	197	197	135	614.465682399925	NA	NA	NA	NA	662.441958699841	662.441958699841	right	0	4.94447708185763	NA	NA	aab	1	2026-06-01_14h49.26.589	MR	2023.1.0	60.0076570632885
mr_images/1_a.png	mr_images/1_b_z_270.png	right	ccw	90	0,0669467187253758	NA	NA	NA	0	198	198	6	617.164996200241	NA	NA	NA	NA	229.435329	229.435329	left	0	3.66206714478322	NA	NA	aab	1	2026-06-01_14h49.26.589	MR	2023.1.0	60.0076570632885
mr_images/4_a.png	mr_images/4_b_z_315.png	right	ccw	45	0,834293541847728	NA	NA	NA	0	199	199	98	618.652194399852	NA	NA	NA	NA	587.269000899978	587.269000899978	left	0	1.54007894652896	NA	NA	aab	1	2026-06-01_14h49.26.589	MR	2023.1.0	60.0076570632885
mr_images/1_a.png	mr_images/1_b_z_90.png	right	cw	90	0,823532594018616	NA	NA	NA	0	200	200	4	619.91496630013	NA	NA	NA	NA	214.170674600173	214.170674600173	left	0	3.67786411312409	NA	NA	aab	1	2026-06-01_14h49.26.589	MR	2023.1.0	60.0076570632885
mr_images/5_b.png	mr_images/5_a_z_270.png	right	ccw	90	0,00785970932338387	NA	NA	NA	0	201	201	138	622.514141899999	NA	NA	NA	NA	349.785415200051	349.785415200051	left	0	2.60089871669188	NA	NA	aab	1	2026-06-01_14h49.26.589	MR	2023.1.0	60.0076570632885
mr_images/1_a.png	mr_images/1_a_z_225.png	left	ccw	135	0,529572925181128	NA	NA	NA	0	202	202	11	624.234731700271	NA	NA	NA	NA	238.950693100225	238.950693100225	right	0	4.15246984618716	NA	NA	aab	1	2026-06-01_14h49.26.589	MR	2023.1.0	60.0076570632885
mr_images/6_a.png	mr_images/6_b_z_90.png	right	cw	90	0,285579875227995	NA	NA	NA	0	203	203	148	627.663859699853	NA	NA	NA	NA	253.315311999992	253.315311999992	left	0	2.07014416134917	NA	NA	aab	1	2026-06-01_14h49.26.589	MR	2023.1.0	60.0076570632885
mr_images/5_b.png	mr_images/5_b_z_270.png	left	ccw	90	0,686549040372483	NA	NA	NA	0	204	204	139	630.746305100154	NA	NA	NA	NA	335.520339000039	335.520339000039	right	0	2.87222447865643	NA	NA	aab	1	2026-06-01_14h49.26.589	MR	2023.1.0	60.0076570632885
mr_images/12_a.png	mr_images/12_b_z_315.png	right	ccw	45	0,389495119336061	NA	NA	NA	0	205	205	50	634.262521599885	NA	NA	NA	NA	232.774971100036	232.774971100036	left	0	1.88117740447633	NA	NA	aab	1	2026-06-01_14h49.26.589	MR	2023.1.0	60.0076570632885
mr_images/3_a.png	mr_images/3_b_z_45.png	right	cw	45	0,257199407205917	NA	NA	NA	0	206	206	72	638.678722800221	NA	NA	NA	NA	342.669609799981	342.669609799981	left	1	3.6460101345554	NA	NA	aab	1	2026-06-01_14h49.26.589	MR	2023.1.0	60.0076570632885
mr_images/1_a.png	mr_images/1_a_z_270.png	left	ccw	90	0,431097696884535	NA	NA	NA	0	207	207	7	641.744790700264	NA	NA	NA	NA	NA	220.419904199895	left	1	2.33049499769696	NA	NA	aab	1	2026-06-01_14h49.26.589	MR	2023.1.0	60.0076570632885
mr_images/9_b.png	mr_images/9_b_z_315.png	left	ccw	45	0,654018699540757	NA	NA	NA	0	208	208	207	643.811243799981	NA	NA	NA	NA	193.373692099936	193.373692099936	right	0	2.83931716596708	NA	NA	aab	1	2026-06-01_14h49.26.589	MR	2023.1.0	60.0076570632885
mr_images/12_b.png	mr_images/12_b_z_225.png	left	ccw	135	0,497823617304675	NA	NA	NA	0	209	209	71	646.061019300018	NA	NA	NA	NA	399.278456900269	399.278456900269	left	1	1.74312196811661	NA	NA	aab	1	2026-06-01_14h49.26.589	MR	2023.1.0	60.0076570632885
mr_images/3_b.png	mr_images/3_a_z_90.png	right	cw	90	0,568666472681798	NA	NA	NA	0	210	210	88	649.181617300026	NA	NA	NA	NA	655.642860699911	655.642860699911	right	1	2.94673665314912	NA	NA	aab	1	2026-06-01_14h49.26.589	MR	2023.1.0	60.0076570632885
mr_images/11_b.png	mr_images/11_a_z_45.png	right	cw	45	0,135896049090661	NA	NA	NA	0	211	211	36	652.080938800238	NA	NA	NA	NA	217.403770899866	217.403770899866	left	1	3.86654050126672	NA	NA	aab	1	2026-06-01_14h49.26.589	MR	2023.1.0	60.0076570632885
mr_images/5_a.png	mr_images/5_a_z_225.png	left	ccw	135	0,726811537868343	NA	NA	NA	0	212	212	131	655.109610899817	NA	NA	NA	NA	179.008649100084	179.008649100084	left	1	2.24153666459024	NA	NA	aab	1	2026-06-01_14h49.26.589	MR	2023.1.0	60.0076570632885
mr_images/11_b.png	mr_images/11_a_z_90.png	right	cw	90	0,805022329441272	NA	NA	NA	0	213	213	40	657.825876099989	NA	NA	NA	NA	413.131254999898	413.131254999898	left	0	2.60029501952231	NA	NA	aab	1	2026-06-01_14h49.26.589	MR	2023.1.0	60.0076570632885
mr_images/9_b.png	mr_images/9_a_z_270.png	right	ccw	90	0,07529722887557	NA	NA	NA	0	214	214	210	660.358903300017	NA	NA	NA	NA	296.492445799988	296.492445799988	left	0	2.4232598763425	NA	NA	aab	1	2026-06-01_14h49.26.589	MR	2023.1.0	60.0076570632885
mr_images/11_b.png	mr_images/11_b_z_315.png	left	ccw	45	0,22446302708704	NA	NA	NA	0	215	215	39	661.908771200106	NA	NA	NA	NA	270.129733500071	270.129733500071	left	1	1.70434642559849	NA	NA	aab	1	2026-06-01_14h49.26.589	MR	2023.1.0	60.0076570632885
NA	NA	NA	NA	NA	NA	NA	NA	NA	NA	NA	NA	NA	NA	NA	NA	NA	NA	NA	NA	NA	NA	NA	666.741380800027	668.741130900104	NA	NA	NA	NA	NA	NA
